time_us,pressure_pa,temp,altitude,fakeYaw,fakePitch,fakeRoll,ax,ay,az,wx,wy,wz,cont_drogue,cont_main,state,fired_main_us,fired_drogue_us
2597178916,100490,29.88,0,41.66,85.77,89.97,-3938.23,249.02,309.08,-1.22,0.24,0.12,634,643,0,0,0
2598202626,100487,29.88,0,38.01,85.43,86.32,-3930.18,317.87,-14.65,1.1,0.12,-0.12,634,643,0,0,0
2599222411,100481,29.88,0,45.2,85.8,93.64,-3990.97,319.34,57.86,0.37,0.12,0.12,634,643,0,0,0
2600242223,100490,29.87,0,48.53,86.18,97.01,-3989.5,279.05,-32.96,-0.49,0.06,0.12,634,643,0,0,0
2601253704,100495,29.87,0,64.51,85.46,113.03,-4012.94,302.49,-15.38,-0.43,0.06,0.06,638,636,0,0,0
2602273523,100487,29.87,0,66.43,84.71,114.91,-4015.14,305.42,-10.99,0.24,0.06,-0.12,638,636,0,0,0
2603293334,100487,29.88,0,42.27,85.66,90.69,-4007.08,315.67,12.45,0.24,0.18,0.12,638,636,0,0,0
2604313109,100491,29.87,0,43.62,85.72,92.08,-4010.74,312.01,-12.45,-0.31,-0.06,-0.12,638,636,0,0,0
2605332915,100476,29.88,0,42.46,85.6,90.99,-3992.43,320.8,-3.66,0.49,0.18,0.06,638,636,0,0,0
2606344379,100487,29.87,0,48.94,85.41,97.43,-4004.15,332.52,-42.48,-0.06,0.31,0.24,639,638,0,0,0
2607364156,100488,29.88,0,42.62,85.75,91.12,-3999.02,272.46,-12.45,-0.37,0.18,0.12,639,638,0,0,0
2607690107,100492,29.87,0.25,48.31,86.26,96.89,-4006.35,276.86,-41.02,-0.49,0.06,0.24,639,638,0,0,0
2607701070,100490,29.87,0.41,48.92,86.24,97.5,-4006.35,276.86,-41.02,-0.43,-0.06,0.12,639,638,0,0,0
2607711080,100490,29.87,0.41,49.48,86.23,98.06,-4006.35,276.86,-41.02,-0.43,-0.06,0.12,639,638,0,0,0
2607721084,100490,29.87,0.41,50.05,86.22,98.62,-4006.35,276.86,-41.02,-0.43,-0.12,0.24,639,638,0,0,0
2607731088,100490,29.87,0.41,49.51,86.22,98.05,-4006.35,276.86,-41.02,-0.49,-0.18,0.18,639,638,0,0,0
2607741092,100490,29.87,0.41,50.03,86.22,98.59,-4006.35,276.86,-41.02,-0.49,-0.24,0.12,639,638,0,0,0
2607752065,100494,29.87,0.16,49.46,86.22,97.99,-4006.35,276.86,-41.02,-0.31,-0.12,0.18,639,638,0,0,0
2607762074,100494,29.87,0.16,49.99,86.22,98.55,-4006.35,276.86,-41.02,0.06,-0.12,0.18,639,638,0,0,0
2607772080,100494,29.87,0.16,49.48,86.22,98.02,-4006.35,276.86,-41.02,0.18,-0.24,0,639,638,0,0,0
2607782086,100494,29.87,0.16,49.97,86.22,98.53,-4006.35,276.86,-41.02,0.12,-0.24,0.06,639,638,0,0,0
2607792093,100494,29.87,0.16,49.52,86.23,98.05,-4006.35,276.86,-41.02,-0.12,0,0,639,638,0,0,0
2607803050,100495,29.87,-0.01,50.1,86.22,98.66,-4006.35,276.86,-41.02,-0.18,0.18,0,639,638,0,0,0
2607813055,100495,29.87,-0.01,49.64,86.22,98.17,-4006.35,276.86,-41.02,-0.12,0.24,0.06,639,638,0,0,0
2607823061,100495,29.87,-0.01,50.19,86.21,98.75,-4006.35,276.86,-41.02,-0.06,0.24,0.06,639,638,0,0,0
2607833065,100495,29.87,-0.01,49.73,86.22,98.26,-4006.35,276.86,-41.02,-0.06,0.24,0.06,639,638,0,0,0
2607843073,100495,29.87,-0.01,50.31,86.21,98.87,-4006.35,276.86,-41.02,-0.24,0.43,0.18,639,638,0,0,0
2607854042,100492,29.87,0.25,49.8,86.21,98.32,-4006.35,276.86,-41.02,-0.24,0.31,0.31,639,638,0,0,0
2607864048,100492,29.87,0.25,50.39,86.22,98.94,-4006.35,276.86,-41.02,-0.31,0.06,0.24,639,638,0,0,0
2607874054,100492,29.87,0.25,49.86,86.21,98.38,-4006.35,276.86,-41.02,-0.37,0.12,0.06,639,638,0,0,0
2607884062,100492,29.87,0.25,50.53,86.22,99.07,-4006.35,276.86,-41.02,-0.24,0.37,0.06,639,638,0,0,0
2607894070,100492,29.87,0.25,50.01,86.21,98.53,-4006.35,276.86,-41.02,-0.24,0.31,0.06,639,638,0,0,0
2607905030,100491,29.87,0.33,49.44,86.21,97.95,-4006.35,276.86,-41.02,-0.18,0.24,0.06,639,638,0,0,0
2607915037,100491,29.87,0.33,50.06,86.22,98.6,-4006.35,276.86,-41.02,-0.06,0.37,0.06,639,638,0,0,0
2607925045,100491,29.87,0.33,49.57,86.21,98.08,-4006.35,276.86,-41.02,0.12,0.18,0,639,638,0,0,0
2607935053,100491,29.87,0.33,50.15,86.22,98.69,-4006.35,276.86,-41.02,0.18,0.12,0.12,639,638,0,0,0
2607945056,100491,29.87,0.33,50,86.14,98.51,-4016.6,327.39,-36.62,0.12,0.37,0.06,639,638,0,0,0
2607956022,100488,29.87,0.58,49.83,86.08,98.34,-4016.6,327.39,-36.62,0.18,0.37,-0.18,639,638,0,0,0
2607966029,100488,29.87,0.58,49.69,86.03,98.19,-4016.6,327.39,-36.62,0.37,0.43,-0.12,639,638,0,0,0
2607976036,100488,29.87,0.58,49.52,85.97,98.02,-4016.6,327.39,-36.62,0.43,0.24,-0.06,639,638,0,0,0
2607986043,100488,29.87,0.58,49.33,85.91,97.83,-4016.6,327.39,-36.62,0.43,0.12,0,639,638,0,0,0
2607996053,100488,29.87,0.58,49.16,85.85,97.65,-4016.6,327.39,-36.62,0.31,0.24,-0.06,639,638,0,0,0
2608007010,100490,29.87,0.41,48.95,85.79,97.45,-4016.6,327.39,-36.62,0.18,0.12,-0.06,639,638,0,0,0
2608017019,100490,29.87,0.41,48.75,85.74,97.25,-4016.6,327.39,-36.62,0.24,0,-0.12,639,638,0,0,0
2608027028,100490,29.87,0.41,48.56,85.68,97.05,-4016.6,327.39,-36.62,0.24,0,-0.18,639,638,0,0,0
2608037036,100490,29.87,0.41,48.36,85.63,96.84,-4016.6,327.39,-36.62,0.18,-0.12,-0.18,639,638,0,0,0
2608047044,100490,29.87,0.41,48.16,85.57,96.64,-4016.6,327.39,-36.62,0.12,-0.18,-0.12,639,638,0,0,0
2608058009,100492,29.87,0.25,47.96,85.51,96.44,-4016.6,327.39,-36.62,0.06,-0.12,0,639,638,0,0,0
2608068017,100492,29.87,0.25,47.84,85.45,96.31,-4016.6,327.39,-36.62,0,0,0,639,638,0,0,0
2608078021,100492,29.87,0.25,47.96,85.51,96.44,-4016.6,327.39,-36.62,0,0,0.12,639,638,0,0,0
2608088028,100492,29.87,0.25,47.81,85.45,96.28,-4016.6,327.39,-36.62,0,-0.18,-0.06,639,638,0,0,0
2608098036,100492,29.87,0.25,47.96,85.51,96.45,-4016.6,327.39,-36.62,0,-0.18,-0.12,639,638,0,0,0
2608108996,100495,29.87,0,47.8,85.45,96.28,-4016.6,327.39,-36.62,-0.06,-0.12,-0.06,639,638,0,0,0
2608119002,100495,29.87,0,47.97,85.51,96.46,-4016.6,327.39,-36.62,-0.06,0.06,0.06,639,638,0,0,0
2608129010,100495,29.87,0,47.78,85.45,96.26,-4016.6,327.39,-36.62,0.18,0,-0.12,639,638,0,0,0
2608139019,100495,29.87,0,48.01,85.51,96.5,-4016.6,327.39,-36.62,0.18,0.18,-0.06,639,638,0,0,0
2608149026,100495,29.87,0,47.77,85.45,96.25,-4016.6,327.39,-36.62,0.12,0.12,0.06,639,638,0,0,0
2608159984,100491,29.87,0.33,48.04,85.52,96.54,-4016.6,327.39,-36.62,0.12,0.06,0.12,639,638,0,0,0
2608169989,100491,29.87,0.33,47.79,85.46,96.27,-4016.6,327.39,-36.62,0.18,0.12,0.06,639,638,0,0,0
2608179997,100491,29.87,0.33,48.09,85.52,96.59,-4016.6,327.39,-36.62,0.12,0.37,0,639,638,0,0,0
2608190002,100491,29.87,0.33,47.83,85.47,96.32,-4016.6,327.39,-36.62,0.06,0.43,0.06,639,638,0,0,0
2608200010,100491,29.87,0.33,48.07,85.52,96.57,-4016.6,327.39,-36.62,0.06,0.31,0.12,639,638,0,0,0
2608210975,100492,29.87,0.25,47.83,85.46,96.31,-4016.6,327.39,-36.62,0.06,0.24,0.12,639,638,0,0,0
2608220981,100492,29.87,0.25,48.04,85.52,96.54,-4016.6,327.39,-36.62,0,0.31,0.18,639,638,0,0,0
2608230989,100492,29.87,0.25,47.83,85.46,96.31,-4016.6,327.39,-36.62,-0.43,0.24,0.06,639,638,0,0,0
2608240993,100492,29.87,0.25,48.06,85.52,96.55,-4016.6,327.39,-36.62,-0.61,0.31,0.06,639,638,0,0,0
2608250997,100492,29.87,0.25,47.83,85.46,96.3,-4016.6,327.39,-36.62,-0.43,0.12,0.12,639,638,0,0,0
2608261963,100492,29.87,0.25,47.41,85.5,95.88,-4022.46,301.03,0.73,-0.37,0.12,0.12,639,638,0,0,0
2608271969,100492,29.87,0.25,47.04,85.53,95.5,-4022.46,301.03,0.73,-0.49,0.24,0.12,639,638,0,0,0
2608281977,100492,29.87,0.25,46.66,85.56,95.12,-4022.46,301.03,0.73,-0.37,0.31,0.18,639,638,0,0,0
2608291981,100492,29.87,0.25,46.27,85.59,94.73,-4022.46,301.03,0.73,-0.12,0.18,0.06,639,638,0,0,0
2608301988,100492,29.87,0.25,45.89,85.62,94.35,-4022.46,301.03,0.73,0,0.31,0.06,639,638,0,0,0
2608312952,100492,29.87,0.25,45.48,85.65,93.93,-4022.46,301.03,0.73,0,0.37,0.06,639,638,0,0,0
2608322960,100492,29.87,0.25,45.09,85.68,93.54,-4022.46,301.03,0.73,0,0.37,0.18,639,638,0,0,0
2608332969,100492,29.87,0.25,44.68,85.71,93.13,-4022.46,301.03,0.73,0,0.18,0.12,639,638,0,0,0
2608342977,100492,29.87,0.25,44.23,85.74,92.68,-4022.46,301.03,0.73,0.12,-0.06,-0.06,639,638,0,0,0
2608352985,100492,29.87,0.25,43.77,85.77,92.23,-4022.46,301.03,0.73,0.18,-0.06,-0.12,639,638,0,0,0
2608363942,100488,29.87,0.58,43.26,85.8,91.72,-4022.46,301.03,0.73,0.43,-0.12,0,639,638,0,0,0
2608373951,100488,29.87,0.58,42.8,85.83,91.26,-4022.46,301.03,0.73,0.55,0,0.06,639,638,0,0,0
2608383952,100488,29.87,0.58,42.35,85.85,90.82,-4022.46,301.03,0.73,0.49,0.12,0.06,639,638,0,0,0
2608393960,100488,29.87,0.58,41.88,85.88,90.35,-4022.46,301.03,0.73,0.18,0,-0.18,639,638,0,0,0
2608403969,100488,29.87,0.58,41.4,85.91,89.87,-4022.46,301.03,0.73,0.06,0,-0.24,639,638,0,0,0
2608414952,100487,29.88,0.66,41.22,85.87,89.69,-4022.46,301.03,0.73,0.18,0.06,-0.18,639,638,0,0,0
2608424964,100487,29.88,0.66,41.47,85.93,89.96,-4022.46,301.03,0.73,0.31,0.24,0,639,638,0,0,0
2608434969,100487,29.88,0.66,41.22,85.88,89.69,-4022.46,301.03,0.73,0.31,0.37,0,639,638,0,0,0
2608444977,100487,29.88,0.66,41.52,85.94,90.01,-4022.46,301.03,0.73,0.12,0.18,-0.18,639,638,0,0,0
2608454983,100487,29.88,0.66,41.23,85.88,89.71,-4022.46,301.03,0.73,0.06,0.06,-0.12,639,638,0,0,0
2608465938,100483,29.88,1,41.59,85.95,90.09,-4022.46,301.03,0.73,0,0.06,-0.06,639,638,0,0,0
2608475950,100483,29.88,1,41.27,85.9,89.75,-4022.46,301.03,0.73,-0.31,0,-0.12,639,638,0,0,0
2608485957,100483,29.88,1,41.67,85.95,90.16,-4022.46,301.03,0.73,-0.37,0.06,-0.18,639,638,0,0,0
2608495966,100483,29.88,1,41.3,85.9,89.77,-4022.46,301.03,0.73,-0.24,0,0,639,638,0,0,0
2608505972,100483,29.88,1,41.74,85.95,90.23,-4022.46,301.03,0.73,-0.06,0.06,0.12,639,638,0,0,0
2608516926,100482,29.88,1.08,41.35,85.9,89.82,-4022.46,301.03,0.73,0.18,0.37,0.18,639,638,0,0,0
2608526937,100482,29.88,1.08,41.61,85.96,90.1,-4022.46,301.03,0.73,0.18,0.18,0.18,639,638,0,0,0
2608536945,100482,29.88,1.08,41.36,85.9,89.84,-4022.46,301.03,0.73,0.18,0.12,0,639,638,0,0,0
2608546952,100482,29.88,1.08,41.64,85.96,90.12,-4022.46,301.03,0.73,0.24,0.55,0,639,638,0,0,0
2608556959,100482,29.88,1.08,41.47,85.91,89.95,-4022.46,301.03,0.73,0.31,0.67,0,639,638,0,0,0
2608567915,100482,29.88,1.08,41,85.91,89.49,-4022.46,301.03,0.73,0.43,0.49,-0.06,639,638,0,0,0
2608577925,100482,29.88,1.08,41.61,85.92,90.13,-4022.46,301.03,0.73,0.49,0.49,0,639,638,0,0,0
2608587934,100482,29.88,1.08,42.19,85.9,90.71,-3979.25,323.73,-46.88,0.55,0.55,-0.06,639,638,0,0,0
2608597944,100482,29.88,1.08,42.74,85.88,91.26,-3979.25,323.73,-46.88,0.49,0.37,-0.18,639,638,0,0,0
2608607952,100482,29.88,1.08,43.24,85.86,91.78,-3979.25,323.73,-46.88,0.55,0.12,-0.18,639,638,0,0,0
2608618901,100486,29.88,0.83,43.8,85.83,92.34,-3979.25,323.73,-46.88,0.55,0.18,0,639,638,0,0,0
2608628910,100486,29.88,0.83,44.29,85.81,92.84,-3979.25,323.73,-46.88,0.43,0.12,-0.06,639,638,0,0,0
2608638916,100486,29.88,0.83,44.77,85.78,93.32,-3979.25,323.73,-46.88,0.43,0,-0.18,639,638,0,0,0
2608648925,100486,29.88,0.83,45.24,85.76,93.8,-3979.25,323.73,-46.88,0.49,0.06,-0.12,639,638,0,0,0
2608658935,100486,29.88,0.83,45.72,85.73,94.28,-3979.25,323.73,-46.88,0.37,0.12,0,639,638,0,0,0
2608669893,100487,29.88,0.66,46.22,85.71,94.78,-3979.25,323.73,-46.88,0.06,0,0,639,638,0,0,0
2608679906,100487,29.88,0.66,46.68,85.68,95.24,-3979.25,323.73,-46.88,-0.18,0.06,0,639,638,0,0,0
2608689916,100487,29.88,0.66,47.13,85.65,95.69,-3979.25,323.73,-46.88,-0.31,0.06,0.12,639,638,0,0,0
2608699921,100487,29.88,0.66,47.58,85.62,96.13,-3979.25,323.73,-46.88,-0.43,0.06,0.12,639,638,0,0,0
2608709929,100487,29.88,0.66,48,85.6,96.55,-3979.25,323.73,-46.88,-0.43,-0.06,0.06,639,638,0,0,0
2608720883,100492,29.88,0.41,48.48,85.56,97.03,-3979.25,323.73,-46.88,-0.43,0.06,0.18,639,638,0,0,0
2608730893,100492,29.88,0.41,48.92,85.53,97.47,-3979.25,323.73,-46.88,-0.37,0.12,0.24,639,638,0,0,0
2608740898,100492,29.88,0.41,49.33,85.51,97.87,-3979.25,323.73,-46.88,-0.49,-0.18,0.18,639,638,0,0,0
2608750903,100492,29.88,0.41,49.75,85.48,98.28,-3979.25,323.73,-46.88,-0.49,-0.18,0.18,639,638,0,0,0
2608760914,100492,29.88,0.41,49.43,85.51,97.94,-3979.25,323.73,-46.88,-0.31,-0.12,0.24,639,638,0,0,0
2608771877,100494,29.88,0.16,49.77,85.48,98.29,-3979.25,323.73,-46.88,0,-0.24,0.12,639,638,0,0,0
2608781885,100494,29.88,0.16,49.5,85.51,98,-3979.25,323.73,-46.88,0.12,-0.12,0.06,639,638,0,0,0
2608791892,100494,29.88,0.16,49.76,85.47,98.29,-3979.25,323.73,-46.88,0.24,-0.12,0.12,639,638,0,0,0
2608801900,100494,29.88,0.16,49.51,85.51,98.03,-3979.25,323.73,-46.88,0.18,0,0.12,639,638,0,0,0
2608811909,100494,29.88,0.16,49.8,85.47,98.32,-3979.25,323.73,-46.88,-0.12,0.18,0,639,638,0,0,0
2608822865,100491,29.87,0.33,49.48,85.5,97.99,-3979.25,323.73,-46.88,-0.18,0.43,0.31,639,638,0,0,0
2608832875,100491,29.87,0.33,49.86,85.47,98.39,-3979.25,323.73,-46.88,-0.06,0.43,0.12,639,638,0,0,0
2608842881,100491,29.87,0.33,49.53,85.49,98.04,-3979.25,323.73,-46.88,-0.06,0.37,0,639,638,0,0,0
2608852890,100491,29.87,0.33,49.92,85.47,98.45,-3979.25,323.73,-46.88,0,0.31,0,639,638,0,0,0
2608862895,100491,29.87,0.33,49.59,85.49,98.1,-3979.25,323.73,-46.88,0,0.49,-0.06,639,638,0,0,0
2608873853,100491,29.87,0.33,50.05,85.46,98.58,-3979.25,323.73,-46.88,-0.18,0.61,-0.06,639,638,0,0,0
2608883862,100491,29.87,0.33,49.72,85.48,98.22,-3979.25,323.73,-46.88,-0.24,0.49,0.12,639,638,0,0,0
2608893871,100491,29.87,0.33,50.01,85.45,98.53,-3979.25,323.73,-46.88,-0.24,0.43,0.12,639,638,0,0,0
2608903880,100491,29.87,0.33,50.36,85.49,98.88,-4021.73,285.64,-63.72,-0.06,0.43,-0.06,639,638,0,0,0
2608913886,100491,29.87,0.33,50.72,85.54,99.24,-4021.73,285.64,-63.72,0.06,0.49,0.06,639,638,0,0,0
2608924842,100492,29.87,0.25,51.1,85.59,99.62,-4021.73,285.64,-63.72,0.18,0.37,0.18,639,638,0,0,0
2608934851,100492,29.87,0.25,51.46,85.64,99.99,-4021.73,285.64,-63.72,0.43,0.49,0.12,639,638,0,0,0
2608944856,100492,29.87,0.25,51.82,85.69,100.37,-4021.73,285.64,-63.72,0.55,0.49,0.06,639,638,0,0,0
2608954863,100492,29.87,0.25,52.17,85.74,100.72,-4021.73,285.64,-63.72,0.61,0.31,0.06,639,638,0,0,0
2608964869,100492,29.87,0.25,52.48,85.8,101.04,-4021.73,285.64,-63.72,0.67,0.06,0.06,639,638,0,0,0
2608975838,100486,29.87,0.75,52.82,85.86,101.4,-4021.73,285.64,-63.72,0.67,0,-0.12,639,638,0,0,0
2608985846,100486,29.87,0.75,53.16,85.91,101.75,-4021.73,285.64,-63.72,0.67,0.18,-0.12,639,638,0,0,0
2608995852,100486,29.87,0.75,53.5,85.96,102.1,-4021.73,285.64,-63.72,0.67,0.12,-0.06,639,638,0,0,0
2609005855,100486,29.87,0.75,53.81,86.02,102.42,-4021.73,285.64,-63.72,0.55,-0.06,0,639,638,0,0,0
2609015861,100486,29.87,0.75,54.13,86.07,102.75,-4021.73,285.64,-63.72,0.37,-0.06,0.06,639,638,0,0,0
2609026831,100476,29.87,1.59,53.79,86,102.4,-4021.73,285.64,-63.72,0.18,0.06,0.12,639,638,0,0,0
2609036844,100476,29.87,1.59,54.08,86.06,102.7,-4021.73,285.64,-63.72,-0.06,-0.12,0.06,639,638,0,0,0
2609046853,100476,29.87,1.59,53.77,86,102.37,-4021.73,285.64,-63.72,-0.43,-0.18,0.18,639,638,0,0,0
2609056857,100476,29.87,1.59,54.09,86.06,102.7,-4021.73,285.64,-63.72,-0.67,0,0.18,639,638,0,0,0
2609066861,100476,29.87,1.59,53.77,86,102.35,-4021.73,285.64,-63.72,-0.73,0.06,0,639,638,0,0,0
2609077823,100479,29.87,1.34,54.15,86.07,102.75,-4021.73,285.64,-63.72,-0.79,0,0,639,638,0,0,0
2609087831,100479,29.87,1.34,53.79,86.01,102.36,-4021.73,285.64,-63.72,-0.79,-0.12,0.06,639,638,0,0,0
2609097835,100479,29.87,1.34,54.16,86.07,102.74,-4021.73,285.64,-63.72,-0.92,-0.24,0,639,638,0,0,0
2609107841,100479,29.87,1.34,53.79,86.01,102.34,-4021.73,285.64,-63.72,-0.92,-0.24,0.12,639,638,0,0,0
2609117845,100479,29.87,1.34,54.19,86.06,102.76,-4021.73,285.64,-63.72,-0.73,0.06,0.24,639,638,0,0,0
2609128818,100480,29.87,1.25,53.77,86,102.31,-4021.73,285.64,-63.72,-0.67,0.31,0.24,639,638,0,0,0
2609138826,100480,29.87,1.25,54.19,86.06,102.75,-4021.73,285.64,-63.72,-0.43,0.24,0.18,639,638,0,0,0
2609148831,100480,29.87,1.25,53.78,86.01,102.31,-4021.73,285.64,-63.72,-0.24,0.24,0.18,639,638,0,0,0
2609158838,100480,29.87,1.25,54.27,86.06,102.83,-4021.73,285.64,-63.72,0,0.43,0.18,639,638,0,0,0
2609168844,100480,29.87,1.25,53.82,86.02,102.35,-4021.73,285.64,-63.72,0.18,0.31,0.18,639,638,0,0,0
2609179813,100487,29.87,1,54.41,86.07,102.97,-4021.73,285.64,-63.72,0.18,0.43,0.12,639,638,0,0,0
2609189821,100487,29.87,1,53.98,86.03,102.51,-4021.73,285.64,-63.72,0.18,0.49,0.06,639,638,0,0,0
2609199829,100487,29.87,1,54.41,86.08,102.96,-4021.73,285.64,-63.72,0.12,0.49,0.24,639,638,0,0,0
2609209836,100487,29.87,1,54.05,86.03,102.59,-4021.73,285.64,-63.72,0.18,0.49,0.18,639,638,0,0,0
2609219840,100487,29.87,1,53.67,85.98,102.21,-4016.6,317.14,-49.8,0.24,0.37,0.18,639,638,0,0,0
2609230794,100490,29.87,0.75,53.26,85.93,101.79,-4016.6,317.14,-49.8,0,0.37,0.12,639,638,0,0,0
2609240806,100490,29.87,0.75,52.86,85.88,101.39,-4016.6,317.14,-49.8,-0.24,0.18,-0.06,639,638,0,0,0
2609250816,100490,29.87,0.75,52.46,85.84,100.98,-4016.6,317.14,-49.8,-0.24,0.06,-0.06,639,638,0,0,0
2609260821,100490,29.87,0.75,52.07,85.8,100.58,-4016.6,317.14,-49.8,-0.24,0.12,0,639,638,0,0,0
2609270827,100490,29.87,0.75,51.68,85.75,100.19,-4016.6,317.14,-49.8,-0.24,0.06,-0.06,639,638,0,0,0
2609281781,100487,29.87,0.66,51.27,85.7,99.76,-4016.6,317.14,-49.8,-0.12,0.06,-0.06,639,638,0,0,0
2609291793,100487,29.87,0.66,50.91,85.66,99.4,-4016.6,317.14,-49.8,0.06,0.18,0,639,638,0,0,0
2609301800,100487,29.87,0.66,50.54,85.62,99.03,-4016.6,317.14,-49.8,0.31,0.18,0,639,638,0,0,0
2609311805,100487,29.87,0.66,50.13,85.58,98.62,-4016.6,317.14,-49.8,0.37,0,-0.12,639,638,0,0,0
2609321815,100487,29.87,0.66,50.56,85.63,99.08,-4016.6,317.14,-49.8,0.31,-0.12,-0.24,639,638,0,0,0
2609332770,100490,29.88,0.41,50.13,85.58,98.63,-4016.6,317.14,-49.8,0.31,-0.12,-0.18,639,638,0,0,0
2609342780,100490,29.88,0.41,50.55,85.63,99.08,-4016.6,317.14,-49.8,0.55,-0.12,-0.24,639,638,0,0,0
2609352788,100490,29.88,0.41,50.17,85.59,98.68,-4016.6,317.14,-49.8,0.73,-0.06,-0.24,639,638,0,0,0
2609362793,100490,29.88,0.41,50.63,85.64,99.17,-4016.6,317.14,-49.8,1.04,0.18,-0.12,639,638,0,0,0
2609372800,100490,29.88,0.41,50.2,85.59,98.74,-4016.6,317.14,-49.8,1.04,0.06,-0.06,639,638,0,0,0
2609383760,100486,29.88,0.75,50.7,85.64,99.27,-4016.6,317.14,-49.8,0.92,-0.06,-0.06,639,638,0,0,0
2609393770,100486,29.88,0.75,50.26,85.6,98.81,-4016.6,317.14,-49.8,0.79,-0.06,-0.12,639,638,0,0,0
2609403774,100486,29.88,0.75,50.75,85.64,99.33,-4016.6,317.14,-49.8,0.49,-0.12,-0.06,639,638,0,0,0
2609413782,100486,29.88,0.75,50.29,85.61,98.85,-4016.6,317.14,-49.8,0.24,0,-0.12,639,638,0,0,0
2609423785,100486,29.88,0.75,50.85,85.63,99.43,-4016.6,317.14,-49.8,0.18,0,-0.06,639,638,0,0,0
2609434770,100486,29.88,0.75,50.3,85.61,98.86,-4016.6,317.14,-49.8,-0.24,-0.12,0,639,638,0,0,0
2609444780,100486,29.88,0.75,50.86,85.63,99.43,-4016.6,317.14,-49.8,-0.49,-0.12,0,639,638,0,0,0
2609454788,100486,29.88,0.75,50.38,85.61,98.93,-4016.6,317.14,-49.8,-0.61,0.12,0.12,639,638,0,0,0
2609464793,100486,29.88,0.75,50.37,85.64,98.91,-4016.6,317.14,-49.8,-0.79,0.24,0.24,639,638,0,0,0
2609474800,100486,29.88,0.75,50.41,85.58,98.95,-4016.6,317.14,-49.8,-0.67,0.18,0.12,639,638,0,0,0
2609485759,100487,29.88,0.66,50.36,85.64,98.88,-4016.6,317.14,-49.8,-0.49,0,-0.06,639,638,0,0,0
2609495764,100487,29.88,0.66,50.44,85.59,98.97,-4016.6,317.14,-49.8,-0.37,0.12,0.06,639,638,0,0,0
2609505768,100487,29.88,0.66,50.39,85.63,98.91,-4016.6,317.14,-49.8,-0.37,0.49,0.24,639,638,0,0,0
2609515775,100487,29.88,0.66,50.48,85.58,99.01,-4016.6,317.14,-49.8,-0.24,0.55,0.12,639,638,0,0,0
2609525779,100487,29.88,0.66,50.39,85.63,98.91,-4016.6,317.14,-49.8,-0.12,0.31,0,639,638,0,0,0
2609536750,100487,29.88,0.66,49.89,85.65,98.41,-3990.97,304.69,-11.72,0.06,0.18,0.06,639,638,0,0,0
2609546759,100487,29.88,0.66,49.44,85.66,97.96,-3990.97,304.69,-11.72,0.24,0.24,0,639,638,0,0,0
2609556766,100487,29.88,0.66,48.99,85.67,97.51,-3990.97,304.69,-11.72,0.31,0.31,0.06,639,638,0,0,0
2609566769,100487,29.88,0.66,48.54,85.69,97.06,-3990.97,304.69,-11.72,0.24,0.31,0.06,639,638,0,0,0
2609576776,100487,29.88,0.66,48.09,85.7,96.61,-3990.97,304.69,-11.72,0.12,0.31,0.12,639,638,0,0,0
2609587743,100486,29.88,0.75,47.59,85.72,96.11,-3990.97,304.69,-11.72,-0.12,0.31,0.06,639,638,0,0,0
2609597747,100486,29.88,0.75,47.11,85.73,95.62,-3990.97,304.69,-11.72,-0.31,0.12,0,639,638,0,0,0
2609607753,100486,29.88,0.75,46.62,85.74,95.12,-3990.97,304.69,-11.72,-0.43,0.06,0.06,639,638,0,0,0
2609617758,100486,29.88,0.75,46.11,85.76,94.61,-3990.97,304.69,-11.72,-0.49,0,0.12,639,638,0,0,0
2609627763,100486,29.88,0.75,45.59,85.77,94.08,-3990.97,304.69,-11.72,-0.67,-0.12,0.12,639,638,0,0,0
2609638732,100486,29.88,0.75,45.04,85.78,93.52,-3990.97,304.69,-11.72,-0.85,0.06,0.24,639,638,0,0,0
2609648741,100486,29.88,0.75,44.55,85.79,93.02,-3990.97,304.69,-11.72,-0.92,0.12,0.31,639,638,0,0,0
2609658747,100486,29.88,0.75,44.06,85.8,92.52,-3990.97,304.69,-11.72,-0.79,0.12,0.24,639,638,0,0,0
2609668752,100486,29.88,0.75,43.56,85.82,92.01,-3990.97,304.69,-11.72,-0.67,0,0.12,639,638,0,0,0
2609678755,100486,29.88,0.75,44.04,85.82,92.51,-3990.97,304.69,-11.72,-0.55,-0.06,0.18,639,638,0,0,0
2609689718,100488,29.87,0.58,43.51,85.82,91.96,-3990.97,304.69,-11.72,0.12,0,0,639,638,0,0,0
2609699724,100488,29.87,0.58,44.01,85.82,92.49,-3990.97,304.69,-11.72,0.61,0.06,-0.06,639,638,0,0,0
2609709728,100488,29.87,0.58,43.51,85.82,91.97,-3990.97,304.69,-11.72,0.98,-0.06,-0.18,639,638,0,0,0
2609719734,100488,29.87,0.58,43.99,85.82,92.49,-3990.97,304.69,-11.72,1.28,-0.06,-0.12,639,638,0,0,0
2609729740,100488,29.87,0.58,43.51,85.82,92,-3990.97,304.69,-11.72,1.28,0.06,-0.06,639,638,0,0,0
2609740708,100490,29.88,0.41,44.03,85.82,92.56,-3990.97,304.69,-11.72,1.28,-0.12,-0.18,639,638,0,0,0
2609750718,100490,29.88,0.41,43.5,85.82,92.01,-3990.97,304.69,-11.72,1.34,-0.31,-0.37,639,638,0,0,0
2609760725,100490,29.88,0.41,43.97,85.82,92.52,-3990.97,304.69,-11.72,1.28,-0.06,-0.37,639,638,0,0,0
2609770730,100490,29.88,0.41,43.49,85.82,92.03,-3990.97,304.69,-11.72,1.04,0.12,-0.24,639,638,0,0,0
2609780735,100490,29.88,0.41,44,85.82,92.57,-3990.97,304.69,-11.72,0.67,0.24,-0.06,639,638,0,0,0
2609791699,100491,29.87,0.33,43.5,85.82,92.05,-3990.97,304.69,-11.72,0.31,0.24,0,639,638,0,0,0
2609801708,100491,29.87,0.33,44.01,85.82,92.58,-3990.97,304.69,-11.72,-0.12,0.24,-0.12,639,638,0,0,0
2609811712,100491,29.87,0.33,43.57,85.82,92.12,-3990.97,304.69,-11.72,-0.49,0.37,0,639,638,0,0,0
2609821717,100491,29.87,0.33,44.08,85.81,92.64,-3990.97,304.69,-11.72,-0.55,0.31,0.06,639,638,0,0,0
2609831723,100491,29.87,0.33,43.64,85.82,92.17,-3990.97,304.69,-11.72,-0.67,0.24,0,639,638,0,0,0
2609842689,100491,29.87,0.33,44.16,85.8,92.71,-3990.97,304.69,-11.72,-0.85,0.31,0.06,639,638,0,0,0
2609852695,100491,29.87,0.33,43.74,85.81,92.25,-3990.97,304.69,-11.72,-0.79,0.31,0.12,639,638,0,0,0
2609862700,100491,29.87,0.33,44.25,85.8,92.78,-4023.19,326.66,-46.88,-0.61,0.31,0.06,639,638,0,0,0
2609872703,100491,29.87,0.33,44.78,85.78,93.31,-4023.19,326.66,-46.88,-0.37,0.37,0.18,639,638,0,0,0
2609882709,100491,29.87,0.33,45.29,85.75,93.82,-4023.19,326.66,-46.88,-0.12,0.31,0,639,638,0,0,0
2609893676,100494,29.87,0.08,45.83,85.73,94.36,-4023.19,326.66,-46.88,0.24,0.18,-0.12,639,638,0,0,0
2609903681,100494,29.87,0.08,46.31,85.7,94.85,-4023.19,326.66,-46.88,0.73,0.18,-0.18,639,638,0,0,0
2609913685,100494,29.87,0.08,46.8,85.68,95.35,-4023.19,326.66,-46.88,1.22,0.24,-0.12,639,638,0,0,0
2609923691,100494,29.87,0.08,47.28,85.65,95.85,-4023.19,326.66,-46.88,1.4,0.31,-0.06,639,638,0,0,0
2609933697,100494,29.87,0.08,47.74,85.62,96.32,-4023.19,326.66,-46.88,1.34,0.18,0,639,638,0,0,0
2609944664,100494,29.87,0.08,48.23,85.59,96.82,-4023.19,326.66,-46.88,1.22,0.06,-0.06,639,638,0,0,0
2609954674,100494,29.87,0.08,48.67,85.56,97.27,-4023.19,326.66,-46.88,1.04,0.12,-0.12,639,638,0,0,0
2609964679,100494,29.87,0.08,49.1,85.53,97.71,-4023.19,326.66,-46.88,0.67,0.12,-0.18,639,638,0,0,0
2609974685,100494,29.87,0.08,49.5,85.5,98.11,-4023.19,326.66,-46.88,0.12,-0.06,-0.18,639,638,0,0,0
2609984693,100494,29.87,0.08,49.88,85.45,98.47,-4023.19,326.66,-46.88,-0.37,-0.18,-0.06,639,638,0,0,0
2609995657,100492,29.87,0.25,49.5,85.49,98.08,-4023.19,326.66,-46.88,-1.22,-0.18,0.18,639,638,0,0,0
2610005662,100492,29.87,0.25,49.96,85.48,98.54,-4023.19,326.66,-46.88,-1.95,-0.31,0.31,639,638,0,0,0
2610015667,100492,29.87,0.25,49.49,85.49,98.03,-4023.19,326.66,-46.88,-2.32,-0.43,0.18,639,638,0,0,0
2610025676,100492,29.87,0.25,49.97,85.49,98.5,-4023.19,326.66,-46.88,-2.38,-0.37,0.24,639,638,0,0,0
2610035683,100492,29.87,0.25,49.47,85.49,97.96,-4023.19,326.66,-46.88,-2.2,-0.37,0.18,639,638,0,0,0
2610046648,100490,29.87,0.41,50.01,85.5,98.5,-4023.19,326.66,-46.88,-1.77,-0.18,0.06,639,638,0,0,0
2610056653,100490,29.87,0.41,49.55,85.49,98.01,-4023.19,326.66,-46.88,-1.1,0,-0.12,639,638,0,0,0
2610066657,100490,29.87,0.41,50.07,85.49,98.54,-4023.19,326.66,-46.88,-0.55,0.06,-0.06,639,638,0,0,0
2610076665,100490,29.87,0.41,49.63,85.49,98.08,-4023.19,326.66,-46.88,0.18,0.12,0,639,638,0,0,0
2610086669,100490,29.87,0.41,50.21,85.49,98.7,-4023.19,326.66,-46.88,1.1,0.31,0,639,638,0,0,0
2610097639,100490,29.87,0.41,49.76,85.49,98.24,-4023.19,326.66,-46.88,1.77,0.43,-0.12,639,638,0,0,0
2610107648,100490,29.87,0.41,49.38,85.48,97.88,-4023.19,326.66,-46.88,2.32,0.37,-0.31,639,638,0,0,0
2610117652,100490,29.87,0.41,49.92,85.5,98.48,-4023.19,326.66,-46.88,2.75,0.24,-0.37,639,638,0,0,0
2610127659,100490,29.87,0.41,49.49,85.49,98.05,-4023.19,326.66,-46.88,3.11,0.18,-0.49,639,638,0,0,0
2610137663,100490,29.87,0.41,50.05,85.49,98.66,-4023.19,326.66,-46.88,2.81,0.31,-0.49,639,638,0,0,0
2610148633,100490,29.87,0.41,49.58,85.49,98.2,-4023.19,326.66,-46.88,2.2,0.24,-0.43,639,638,0,0,0
2610158641,100490,29.87,0.41,49.34,85.45,97.97,-4023.19,326.66,-46.88,1.77,0.12,-0.31,639,638,0,0,0
2610168648,100490,29.87,0.41,49.65,85.51,98.3,-4023.19,326.66,-46.88,1.34,0.18,-0.18,639,638,0,0,0
2610178654,100490,29.87,0.41,49.56,85.56,98.21,-4012.21,271.73,-28.56,0.67,0.31,-0.12,639,638,0,0,0
2610188659,100490,29.87,0.41,49.45,85.61,98.1,-4012.21,271.73,-28.56,-0.24,0.24,-0.12,639,638,0,0,0
2610199626,100492,29.87,0.25,49.32,85.67,97.97,-4012.21,271.73,-28.56,-1.16,0.24,0.06,639,638,0,0,0
2610209633,100492,29.87,0.25,49.21,85.72,97.83,-4012.21,271.73,-28.56,-2.01,0.31,0.18,639,638,0,0,0
2610219637,100492,29.87,0.25,49.09,85.78,97.69,-4012.21,271.73,-28.56,-2.38,0.31,0.12,639,638,0,0,0
2610229642,100492,29.87,0.25,48.95,85.83,97.53,-4012.21,271.73,-28.56,-2.2,0.18,0.24,639,638,0,0,0
2610239646,100492,29.87,0.25,48.81,85.88,97.38,-4012.21,271.73,-28.56,-1.89,0.24,0.31,639,638,0,0,0
2610250615,100492,29.87,0.25,48.66,85.94,97.21,-4012.21,271.73,-28.56,-1.46,0.18,0.18,639,638,0,0,0
2610260621,100492,29.87,0.25,48.49,85.99,97.04,-4012.21,271.73,-28.56,-0.92,0.06,0.12,639,638,0,0,0
2610270625,100492,29.87,0.25,48.32,86.05,96.87,-4012.21,271.73,-28.56,-0.31,0,0.12,639,638,0,0,0
2610280628,100492,29.87,0.25,48.15,86.1,96.71,-4012.21,271.73,-28.56,0.12,0.06,0,639,638,0,0,0
2610290635,100492,29.87,0.25,47.99,86.16,96.56,-4012.21,271.73,-28.56,0.61,0.18,0,639,638,0,0,0
2610301607,100492,29.87,0.25,47.79,86.22,96.37,-4012.21,271.73,-28.56,1.28,0.06,0,639,638,0,0,0
2610311616,100492,29.87,0.25,47.56,86.27,96.17,-4012.21,271.73,-28.56,1.65,-0.06,-0.06,639,638,0,0,0
2610321620,100492,29.87,0.25,47.33,86.33,95.96,-4012.21,271.73,-28.56,1.77,0,-0.06,639,638,0,0,0
2610331625,100492,29.87,0.25,47.49,86.28,96.14,-4012.21,271.73,-28.56,1.59,0,0.06,639,638,0,0,0
2610341630,100492,29.87,0.25,47.28,86.32,95.94,-4012.21,271.73,-28.56,1.1,-0.18,0.06,639,638,0,0,0
2610352601,100491,29.87,0.33,47.54,86.28,96.22,-4012.21,271.73,-28.56,0.24,-0.31,0.12,639,638,0,0,0
2610362611,100491,29.87,0.33,47.25,86.32,95.9,-4012.21,271.73,-28.56,-0.61,-0.37,0.06,639,638,0,0,0
2610372619,100491,29.87,0.33,47.74,86.3,96.4,-4012.21,271.73,-28.56,-1.16,-0.12,0.06,639,638,0,0,0
2610382626,100491,29.87,0.33,47.28,86.32,95.9,-4012.21,271.73,-28.56,-1.46,0.06,0.31,639,638,0,0,0
2610392634,100491,29.87,0.33,47.88,86.32,96.52,-4012.21,271.73,-28.56,-1.83,0.06,0.37,633,635,0,0,0
2610403608,100487,29.87,0.66,47.31,86.31,95.88,-4012.21,271.73,-28.56,-3.11,0.18,0.31,633,635,0,0,0
2610413615,100487,29.87,0.66,47.96,86.33,96.52,-4012.21,271.73,-28.56,-3.72,0.31,0.49,633,635,0,0,0
2610423614,100487,29.87,0.66,47.42,86.31,95.92,-4012.21,271.73,-28.56,-3.36,0.24,0.55,633,635,0,0,0
2610433614,100487,29.87,0.66,47.94,86.35,96.44,-4012.21,271.73,-28.56,-2.44,0.12,0.37,633,635,0,0,0
2610443611,100487,29.87,0.66,47.44,86.31,95.91,-4012.21,271.73,-28.56,-1.28,0,0.06,633,635,0,0,0
2610454609,100490,29.87,0.41,48.05,86.36,96.54,-4012.21,271.73,-28.56,-0.49,-0.06,-0.18,633,635,0,0,0
2610464612,100490,29.87,0.41,47.54,86.32,96.01,-4012.21,271.73,-28.56,0.55,0.06,-0.18,633,635,0,0,0
2610474611,100490,29.87,0.41,47.43,86.26,95.9,-4012.21,271.73,-28.56,1.28,0.31,-0.18,633,635,0,0,0
2610484611,100490,29.87,0.41,47.57,86.33,96.06,-4012.21,271.73,-28.56,1.59,0.12,-0.31,633,635,0,0,0
2610494610,100490,29.87,0.41,48.16,86.34,96.7,-3917.72,357.42,-537.6,1.71,0,-0.43,633,635,0,0,0
2610504609,100490,29.87,0.41,48.83,86.33,97.39,-3917.72,357.42,-537.6,2.08,0.49,-0.43,633,635,0,0,0
2610514614,100492,29.87,0.25,49.47,86.31,98.06,-3917.72,357.42,-537.6,2.5,0.37,-0.18,633,635,0,0,0
2610524613,100492,29.87,0.25,50.1,86.3,98.72,-3917.72,357.42,-537.6,2.56,0.31,0,633,635,0,0,0
2610534608,100492,29.87,0.25,50.74,86.29,99.38,-3917.72,357.42,-537.6,2.08,0.43,-0.18,633,635,0,0,0
2610544611,100492,29.87,0.25,51.37,86.27,100.02,-3917.72,357.42,-537.6,1.65,0.31,-0.24,633,635,0,0,0
2610554613,100492,29.87,0.25,51.97,86.26,100.64,-3917.72,357.42,-537.6,1.1,0.18,-0.12,633,635,0,0,0
2610564612,100488,29.87,0.58,52.58,86.24,101.25,-3917.72,357.42,-537.6,0.43,0.31,0,633,635,0,0,0
2610574610,100488,29.87,0.58,53.17,86.22,101.84,-3917.72,357.42,-537.6,-0.24,0.24,0.12,633,635,0,0,0
2610584612,100488,29.87,0.58,53.76,86.2,102.43,-3917.72,357.42,-537.6,-0.43,0.31,0.31,633,635,0,0,0
2610594610,100488,29.87,0.58,54.34,86.18,103,-3917.72,357.42,-537.6,-0.61,0.24,0.18,633,635,0,0,0
2610604610,100488,29.87,0.58,54.92,86.16,103.57,-3917.72,357.42,-537.6,-0.73,0.24,-0.06,633,635,0,0,0
2610614611,100487,29.88,0.66,55.5,86.15,104.15,-3917.72,357.42,-537.6,-0.79,0.24,-0.12,633,635,0,0,0
2610624608,100487,29.88,0.66,56.05,86.13,104.69,-3917.72,357.42,-537.6,-0.92,0.12,-0.06,633,635,0,0,0
2610634611,100487,29.88,0.66,56.58,86.11,105.21,-3917.72,357.42,-537.6,-0.79,-0.06,-0.18,633,635,0,0,0
2610644610,100487,29.88,0.66,57.08,86.09,105.7,-3917.72,357.42,-537.6,-0.18,-0.31,-0.12,633,635,0,0,0
2610654621,100487,29.88,0.66,57.59,86.08,106.23,-3917.72,357.42,-537.6,0.55,-0.06,-0.06,633,635,0,0,0
2610664615,100486,29.87,0.75,58.12,86.05,106.76,-3917.72,357.42,-537.6,0.61,0.06,0.06,633,635,0,0,0
2610674626,100486,29.87,0.75,58.63,86.03,107.28,-3917.72,357.42,-537.6,0.67,0,0.06,633,635,0,0,0
2610684630,100486,29.87,0.75,59.16,86.01,107.81,-3917.72,357.42,-537.6,0.92,0.18,0.06,633,635,0,0,0
2610694637,100486,29.87,0.75,59.68,85.99,108.34,-3917.72,357.42,-537.6,1.04,0.12,0.06,633,635,0,0,0
2610704641,100486,29.87,0.75,60.18,85.97,108.86,-3917.72,357.42,-537.6,1.1,0.06,0,633,635,0,0,0
2610714634,100486,29.87,0.75,60.69,85.95,109.38,-3917.72,357.42,-537.6,0.92,0.12,0,633,635,0,0,0
2610724640,100486,29.87,0.75,61.2,85.92,109.89,-3917.72,357.42,-537.6,0.67,0.18,0.06,633,635,0,0,0
2610734646,100486,29.87,0.75,61.69,85.9,110.39,-3917.72,357.42,-537.6,0.49,0.12,0.06,633,635,0,0,0
2610744655,100486,29.87,0.75,62.18,85.88,110.88,-3917.72,357.42,-537.6,0.12,0.12,0.12,633,635,0,0,0
2610754658,100486,29.87,0.75,62.67,85.85,111.37,-3917.72,357.42,-537.6,-0.37,0.18,0.12,633,635,0,0,0
2610764656,100490,29.87,0.5,63.17,85.82,111.85,-3917.72,357.42,-537.6,-0.85,0.31,0.18,633,635,0,0,0
2610774666,100490,29.87,0.5,63.63,85.8,112.3,-3917.72,357.42,-537.6,-1.28,0.06,0.12,633,635,0,0,0
2610784671,100490,29.87,0.5,64.07,85.77,112.72,-3917.72,357.42,-537.6,-1.65,-0.12,0.18,633,635,0,0,0
2610794680,100490,29.87,0.5,64.49,85.75,113.13,-3917.72,357.42,-537.6,-1.83,-0.12,0.24,633,635,0,0,0
2610804688,100490,29.87,0.5,64.94,85.72,113.56,-3917.72,357.42,-537.6,-1.89,0.12,0.31,633,635,0,0,0
2610814684,100488,29.87,0.58,64.45,85.71,113.03,-4011.47,327.39,1.46,-1.77,0.24,0.18,633,635,0,0,0
2610824691,100488,29.87,0.58,63.96,85.71,112.52,-4011.47,327.39,1.46,-1.59,0.37,0.24,633,635,0,0,0
2610834698,100488,29.87,0.58,63.47,85.71,112.01,-4011.47,327.39,1.46,-1.22,0.31,0.18,633,635,0,0,0
2610844706,100488,29.87,0.58,62.96,85.71,111.5,-4011.47,327.39,1.46,-0.73,0.18,0,633,635,0,0,0
2610854709,100488,29.87,0.58,62.46,85.72,110.99,-4011.47,327.39,1.46,-0.24,0.18,-0.06,633,635,0,0,0
2610864703,100487,29.87,0.66,61.99,85.72,110.52,-4011.47,327.39,1.46,0.31,0.37,-0.12,633,635,0,0,0
2610874709,100487,29.87,0.66,61.52,85.72,110.05,-4011.47,327.39,1.46,0.67,0.43,0,633,635,0,0,0
2610884712,100487,29.87,0.66,61.02,85.72,109.57,-4011.47,327.39,1.46,1.1,0.31,0.06,633,635,0,0,0
2610894718,100487,29.87,0.66,60.54,85.72,109.1,-4011.47,327.39,1.46,1.4,0.31,-0.12,633,635,0,0,0
2610904725,100487,29.87,0.66,60.07,85.72,108.64,-4011.47,327.39,1.46,1.53,0.37,-0.31,633,635,0,0,0
2610915181,100487,29.87,0.66,59.59,85.73,108.17,-4011.47,327.39,1.46,1.4,0.43,-0.24,633,635,0,0,0
2610925191,100487,29.87,0.66,59.11,85.73,107.71,-4011.47,327.39,1.46,1.22,0.37,-0.24,633,635,0,0,0
2610935195,100487,29.87,0.66,58.62,85.73,107.23,-4011.47,327.39,1.46,1.04,0.24,-0.24,633,635,0,0,0
2610945204,100487,29.87,0.66,58.11,85.73,106.72,-4011.47,327.39,1.46,0.67,0.12,-0.06,633,635,0,0,0
2610955209,100487,29.87,0.66,57.57,85.73,106.18,-4011.47,327.39,1.46,0.49,-0.12,0,633,635,0,0,0
2610966171,100491,29.87,0.41,56.96,85.73,105.57,-4011.47,327.39,1.46,0.31,-0.24,-0.06,633,635,0,0,0
2610976177,100491,29.87,0.41,56.41,85.73,105.02,-4011.47,327.39,1.46,0,-0.18,-0.12,633,635,0,0,0
2610986181,100491,29.87,0.41,55.86,85.73,104.46,-4011.47,327.39,1.46,-0.37,-0.24,-0.06,633,635,0,0,0
2610996185,100491,29.87,0.41,55.3,85.73,103.9,-4011.47,327.39,1.46,-0.55,-0.18,0.06,633,635,0,0,0
2611006192,100491,29.87,0.41,54.77,85.72,103.36,-4011.47,327.39,1.46,-0.61,0,0.06,633,635,0,0,0
2611017165,100506,29.87,0.16,54.22,85.72,102.79,-4011.47,327.39,1.46,-0.49,0.12,-0.06,633,635,0,0,0
2611027174,100506,29.87,0.16,53.71,85.72,102.28,-4011.47,327.39,1.46,-0.37,0.18,0.06,633,635,0,0,0
2611037178,100506,29.87,0.16,53.21,85.71,101.77,-4011.47,327.39,1.46,-0.18,0.18,0.06,633,635,0,0,0
2611047186,100506,29.87,0.16,52.71,85.71,101.28,-4011.47,327.39,1.46,0.12,0.24,0,633,635,0,0,0
2611057193,100506,29.87,0.16,52.22,85.7,100.78,-4011.47,327.39,1.46,0.31,0.18,-0.06,633,635,0,0,0
2611068154,100507,29.87,-0.09,51.66,85.7,100.23,-4011.47,327.39,1.46,0.79,0.12,-0.06,633,635,0,0,0
2611078163,100507,29.87,-0.09,51.15,85.69,99.73,-4011.47,327.39,1.46,0.92,0.06,0.06,633,635,0,0,0
2611088169,100507,29.87,-0.09,50.63,85.68,99.21,-4011.47,327.39,1.46,0.85,0,0,633,635,0,0,0
2611098179,100507,29.87,-0.09,50.1,85.68,98.69,-4011.47,327.39,1.46,0.85,-0.12,-0.06,633,635,0,0,0
2611108189,100507,29.87,-0.09,49.59,85.67,98.19,-4011.47,327.39,1.46,0.79,0.12,0.06,633,635,0,0,0
2611119141,100506,29.87,-0.34,49.06,85.66,97.66,-4011.47,327.39,1.46,0.43,0.24,0.18,633,635,0,0,0
2611129148,100506,29.87,-0.34,48.93,85.71,97.52,-4018.8,268.07,-24.9,0.12,0.18,0.12,633,635,0,0,0
2611139153,100506,29.87,-0.34,48.79,85.77,97.38,-4018.8,268.07,-24.9,-0.31,0.18,0.12,633,635,0,0,0
2611149161,100506,29.87,-0.34,48.64,85.82,97.24,-4018.8,268.07,-24.9,-0.61,0.18,0.06,633,635,0,0,0
2611159168,100506,29.87,-0.34,48.51,85.87,97.09,-4018.8,268.07,-24.9,-0.92,0.31,0.24,633,635,0,0,0
2611170131,100504,29.87,-0.59,48.35,85.93,96.93,-4018.8,268.07,-24.9,-1.22,0.31,0.37,633,635,0,0,0
2611180142,100504,29.87,-0.59,48.22,85.98,96.79,-4018.8,268.07,-24.9,-1.34,0.43,0.43,633,635,0,0,0
2611190147,100504,29.87,-0.59,48.08,86.03,96.63,-4018.8,268.07,-24.9,-1.28,0.37,0.49,633,635,0,0,0
2611200156,100504,29.87,-0.59,47.9,86.07,96.44,-4018.8,268.07,-24.9,-1.22,0.18,0.61,633,635,0,0,0
2611210163,100504,29.87,-0.59,47.71,86.12,96.25,-4018.8,268.07,-24.9,-1.22,0.12,0.37,633,635,0,0,0
2611221119,100511,29.87,-0.84,47.51,86.18,96.04,-4018.8,268.07,-24.9,-1.16,0.12,0.12,633,635,0,0,0
2611231125,100511,29.87,-0.84,47.32,86.24,95.84,-4018.8,268.07,-24.9,-0.79,0.06,0.06,633,635,0,0,0
2611241136,100511,29.87,-0.84,47.12,86.29,95.64,-4018.8,268.07,-24.9,-0.43,0.06,0.18,633,635,0,0,0
2611251146,100511,29.87,-0.84,46.92,86.34,95.44,-4018.8,268.07,-24.9,-0.18,0.06,0.18,633,635,0,0,0
2611261154,100511,29.87,-0.84,46.7,86.4,95.23,-4018.8,268.07,-24.9,0.24,-0.06,-0.06,633,635,0,0,0
2611272106,100511,29.87,-1.09,46.91,86.35,95.46,-4018.8,268.07,-24.9,0.73,-0.18,-0.18,633,635,0,0,0
2611282112,100511,29.87,-1.09,46.68,86.4,95.23,-4018.8,268.07,-24.9,0.92,-0.12,-0.24,633,635,0,0,0
2611292121,100511,29.87,-1.09,46.94,86.35,95.51,-4018.8,268.07,-24.9,1.04,0.18,-0.18,633,635,0,0,0
2611302128,100511,29.87,-1.09,46.67,86.4,95.24,-4018.8,268.07,-24.9,0.98,0.06,-0.24,633,635,0,0,0
2611312138,100511,29.87,-1.09,46.91,86.35,95.5,-4018.8,268.07,-24.9,0.79,0.06,-0.18,633,635,0,0,0
2611323098,100506,29.87,-0.93,46.65,86.4,95.24,-4018.8,268.07,-24.9,0.73,0.18,-0.12,633,635,0,0,0
2611333108,100506,29.87,-0.93,46.86,86.35,95.46,-4018.8,268.07,-24.9,0.67,0.12,-0.06,633,635,0,0,0
2611343115,100506,29.87,-0.93,46.66,86.4,95.26,-4018.8,268.07,-24.9,0.49,0.18,-0.12,633,635,0,0,0
2611353121,100506,29.87,-0.93,46.85,86.35,95.45,-4018.8,268.07,-24.9,0.18,0.18,-0.24,633,635,0,0,0
2611363125,100506,29.87,-0.93,46.65,86.4,95.24,-4018.8,268.07,-24.9,-0.06,0.06,-0.24,633,635,0,0,0
2611374090,100507,29.88,-1.01,46.87,86.35,95.48,-4018.8,268.07,-24.9,0.06,0.12,-0.18,633,635,0,0,0
2611384100,100507,29.88,-1.01,46.67,86.39,95.26,-4018.8,268.07,-24.9,-0.12,0.12,-0.12,633,635,0,0,0
2611394107,100507,29.88,-1.01,46.88,86.34,95.49,-4018.8,268.07,-24.9,-0.31,0.24,0,633,635,0,0,0
2611404112,100507,29.88,-1.01,46.71,86.39,95.3,-4018.8,268.07,-24.9,-0.37,0.31,0.06,633,635,0,0,0
2611414118,100507,29.88,-1.01,46.8,86.33,95.39,-4018.8,268.07,-24.9,-0.06,0.24,0.12,633,635,0,0,0
2611425077,100500,29.87,-0.43,46.72,86.39,95.31,-4018.8,268.07,-24.9,0.24,0.12,0.06,633,635,0,0,0
2611435083,100500,29.87,-0.43,46.75,86.33,95.34,-4018.8,268.07,-24.9,0.37,0.12,-0.06,633,635,0,0,0
2611445091,100500,29.87,-0.43,46.39,86.28,94.98,-4017.33,317.14,-2.2,0.61,0.24,0,633,635,0,0,0
2611455099,100500,29.87,-0.43,46.04,86.23,94.63,-4017.33,317.14,-2.2,0.67,0.31,0.12,633,635,0,0,0
2611465107,100500,29.87,-0.43,45.69,86.19,94.29,-4017.33,317.14,-2.2,0.73,0.31,-0.12,633,635,0,0,0
2611476085,100499,29.87,-0.34,45.33,86.14,93.93,-4017.33,317.14,-2.2,0.67,0.37,-0.12,633,635,0,0,0
2611486095,100499,29.87,-0.34,44.99,86.09,93.58,-4017.33,317.14,-2.2,0.61,0.24,0.06,633,635,0,0,0
2611496106,100499,29.87,-0.34,44.62,86.05,93.22,-4017.33,317.14,-2.2,0.55,0.06,0,633,635,0,0,0
2611506111,100499,29.87,-0.34,44.27,86,92.86,-4017.33,317.14,-2.2,0.49,0.06,-0.06,633,635,0,0,0
2611516121,100499,29.87,-0.34,43.93,85.95,92.52,-4017.33,317.14,-2.2,0.18,0.18,0.06,633,635,0,0,0
2611527072,100496,29.88,-0.09,43.58,85.9,92.16,-4017.33,317.14,-2.2,0,0.24,0.12,633,635,0,0,0
2611537084,100496,29.88,-0.09,43.25,85.85,91.83,-4017.33,317.14,-2.2,-0.24,0.18,0.12,633,635,0,0,0
2611547093,100496,29.88,-0.09,42.91,85.81,91.48,-4017.33,317.14,-2.2,-0.49,0.06,0.18,633,635,0,0,0
2611557099,100496,29.88,-0.09,42.56,85.76,91.12,-4017.33,317.14,-2.2,-0.73,0,0.24,633,635,0,0,0
2611567106,100496,29.88,-0.09,42.21,85.71,90.76,-4017.33,317.14,-2.2,-0.73,-0.06,0.18,633,635,0,0,0
2611578060,100494,29.87,0.08,41.86,85.66,90.39,-4017.33,317.14,-2.2,-0.61,0.06,0.12,633,635,0,0,0
2611588069,100494,29.87,0.08,42.03,85.72,90.56,-4017.33,317.14,-2.2,-0.67,0.12,0.12,633,635,0,0,0
2611598079,100494,29.87,0.08,41.86,85.66,90.38,-4017.33,317.14,-2.2,-0.61,0,0.06,633,635,0,0,0
2611608084,100494,29.87,0.08,42.09,85.72,90.61,-4017.33,317.14,-2.2,-0.55,-0.12,0,633,635,0,0,0
2611618091,100494,29.87,0.08,41.86,85.66,90.37,-4017.33,317.14,-2.2,-0.31,-0.12,0.18,633,635,0,0,0
2611629048,100490,29.87,0.41,42.29,85.72,90.82,-4017.33,317.14,-2.2,-0.12,-0.06,0.12,633,635,0,0,0
2611639058,100490,29.87,0.41,41.93,85.67,90.45,-4017.33,317.14,-2.2,0,0.06,0.12,633,635,0,0,0
2611649064,100490,29.87,0.41,41.58,85.64,90.09,-4017.33,317.14,-2.2,0.18,0.12,0.06,633,635,0,0,0
2611659072,100490,29.87,0.41,42.01,85.69,90.54,-4017.33,317.14,-2.2,0.18,0.24,-0.06,633,635,0,0,0
2611669080,100490,29.87,0.41,41.63,85.65,90.14,-4017.33,317.14,-2.2,0.24,0.18,0,633,635,0,0,0
2611680034,100490,29.87,0.41,42.14,85.69,90.68,-4017.33,317.14,-2.2,0.37,0.24,-0.06,633,635,0,0,0
2611690044,100490,29.87,0.41,41.73,85.65,90.26,-4017.33,317.14,-2.2,0.24,0.18,0.18,633,635,0,0,0
2611700051,100490,29.87,0.41,42.18,85.7,90.72,-4017.33,317.14,-2.2,0.12,0.12,0.24,633,635,0,0,0
2611710057,100490,29.87,0.41,41.76,85.66,90.28,-4017.33,317.14,-2.2,0.12,0.06,0.18,633,635,0,0,0
2611720065,100490,29.87,0.41,42.21,85.7,90.75,-4017.33,317.14,-2.2,0,0.12,0.06,633,635,0,0,0
2611731020,100490,29.88,0.41,41.77,85.66,90.29,-4017.33,317.14,-2.2,-0.18,0.12,-0.12,633,635,0,0,0
2611741029,100490,29.88,0.41,42.24,85.7,90.79,-4017.33,317.14,-2.2,-0.18,0.06,0,633,635,0,0,0
2611751036,100490,29.88,0.41,41.81,85.66,90.33,-4017.33,317.14,-2.2,-0.18,0,0.06,633,635,0,0,0
2611761044,100490,29.88,0.41,42.31,85.7,90.85,-4017.33,317.14,-2.2,-0.12,0.06,-0.06,633,635,0,0,0
2611771053,100490,29.88,0.41,42.64,85.75,91.18,-4007.08,309.08,-7.32,-0.06,0.18,-0.06,633,635,0,0,0
2611782009,100491,29.87,0.33,42.99,85.8,91.54,-4007.08,309.08,-7.32,-0.12,0.24,0,633,635,0,0,0
2611792020,100491,29.87,0.33,42.72,85.75,91.24,-4007.08,309.08,-7.32,-0.24,0.37,0.12,633,635,0,0,0
2611802026,100491,29.87,0.33,43.05,85.81,91.58,-4007.08,309.08,-7.32,-0.24,0.49,0.12,633,635,0,0,0
2611812033,100491,29.87,0.33,42.76,85.75,91.28,-4007.08,309.08,-7.32,0,0.43,0.12,633,635,0,0,0
2611822040,100491,29.87,0.33,43.04,85.81,91.58,-4007.08,309.08,-7.32,0.31,0.31,0,633,635,0,0,0
2611833000,100491,29.87,0.33,42.74,85.75,91.27,-4007.08,309.08,-7.32,0.55,0.12,-0.12,633,635,0,0,0
2611843011,100491,29.87,0.33,43.03,85.82,91.59,-4007.08,309.08,-7.32,0.67,0.12,-0.18,633,635,0,0,0
2611853020,100491,29.87,0.33,42.77,85.76,91.31,-4007.08,309.08,-7.32,0.61,0.18,-0.18,633,635,0,0,0
2611863029,100491,29.87,0.33,43.04,85.82,91.6,-4007.08,309.08,-7.32,0.55,0.06,-0.18,633,635,0,0,0
2611873036,100491,29.87,0.33,42.78,85.76,91.33,-4007.08,309.08,-7.32,0.49,0.06,-0.12,633,635,0,0,0
2611883987,100492,29.87,0.25,43.12,85.83,91.7,-4007.08,309.08,-7.32,0.49,0.12,0,633,635,0,0,0
2611893997,100492,29.87,0.25,42.83,85.77,91.39,-4007.08,309.08,-7.32,0.37,0.12,0,633,635,0,0,0
2611904010,100492,29.87,0.25,42.47,85.73,91.03,-4007.08,309.08,-7.32,0.24,0.12,0.18,633,635,0,0,0
2611914015,100492,29.87,0.25,42.85,85.79,91.44,-4007.08,309.08,-7.32,0.18,0.12,0.12,633,635,0,0,0
2611924021,100492,29.87,0.25,42.45,85.75,91.01,-4007.08,309.08,-7.32,-0.12,0.12,0.06,633,635,0,0,0
2611934975,100492,29.87,0.25,42.98,85.79,91.57,-4007.08,309.08,-7.32,-0.43,0.24,0.06,633,635,0,0,0
2611944984,100492,29.87,0.25,42.55,85.76,91.1,-4007.08,309.08,-7.32,-0.85,0.18,0.24,633,635,0,0,0
2611954991,100492,29.87,0.25,43.03,85.79,91.59,-4007.08,309.08,-7.32,-1.16,0.06,0.24,633,635,0,0,0
2611965000,100492,29.87,0.25,42.56,85.76,91.08,-4007.08,309.08,-7.32,-1.22,0,0.18,633,635,0,0,0
2611975011,100492,29.87,0.25,43.05,85.79,91.59,-4007.08,309.08,-7.32,-0.98,0.06,0.18,633,635,0,0,0
2611985962,100492,29.88,0.25,42.55,85.76,91.06,-4007.08,309.08,-7.32,-0.92,0.12,0.18,633,635,0,0,0
2611995970,100492,29.88,0.25,43.02,85.79,91.55,-4007.08,309.08,-7.32,-0.92,-0.12,0.12,633,635,0,0,0
2612005977,100492,29.88,0.25,42.53,85.76,91.02,-4007.08,309.08,-7.32,-0.61,-0.18,0.12,633,635,0,0,0
2612016625,100492,29.88,0.25,43.05,85.79,91.57,-4007.08,309.08,-7.32,-0.37,-0.06,0.12,633,635,0,0,0
2612026633,100492,29.88,0.25,42.58,85.76,91.07,-4007.08,309.08,-7.32,-0.31,0.06,0.24,633,635,0,0,0
2612036951,100491,29.88,0.33,43.11,85.79,91.62,-4007.08,309.08,-7.32,-0.18,0.12,0.24,633,635,0,0,0
2612046959,100491,29.88,0.33,42.66,85.77,91.14,-4007.08,309.08,-7.32,0,0.24,0,633,635,0,0,0
2612056967,100491,29.88,0.33,43.19,85.79,91.7,-4007.08,309.08,-7.32,0.18,0.12,-0.06,633,635,0,0,0
2612066974,100491,29.88,0.33,42.7,85.77,91.19,-4007.08,309.08,-7.32,0.24,0.06,-0.06,633,635,0,0,0
2612076981,100491,29.88,0.33,43.25,85.79,91.76,-4007.08,309.08,-7.32,0.06,0.18,0,633,635,0,0,0
2612087935,100492,29.88,0.25,43.57,85.73,92.08,-4040.04,325.2,-15.38,0,0.37,0.12,633,635,0,0,0
2612097942,100492,29.88,0.25,43.86,85.67,92.36,-4040.04,325.2,-15.38,0.12,0.43,0.12,633,635,0,0,0
2612107952,100492,29.88,0.25,44.11,85.62,92.61,-4040.04,325.2,-15.38,0.31,0.37,0.06,633,635,0,0,0
2612117957,100492,29.88,0.25,44.3,85.56,92.79,-4040.04,325.2,-15.38,0.18,0.37,0,633,635,0,0,0
2612127965,100492,29.88,0.25,44.1,85.6,92.59,-4040.04,325.2,-15.38,0.18,0.31,-0.12,633,635,0,0,0
2612138926,100488,29.88,0.58,44.36,85.55,92.86,-4040.04,325.2,-15.38,0.18,0.24,-0.18,633,635,0,0,0
2612148936,100488,29.88,0.58,44.14,85.59,92.63,-4040.04,325.2,-15.38,0.06,0.24,-0.18,633,635,0,0,0
2612158944,100488,29.88,0.58,44.37,85.54,92.87,-4040.04,325.2,-15.38,0,0.18,-0.18,633,635,0,0,0
2612168952,100488,29.88,0.58,44.16,85.58,92.65,-4040.04,325.2,-15.38,-0.06,0.18,-0.18,633,635,0,0,0
2612178959,100488,29.88,0.58,44.36,85.54,92.86,-4040.04,325.2,-15.38,0.18,0.06,-0.24,633,635,0,0,0
2612189915,100488,29.87,0.58,44.12,85.59,92.62,-4040.04,325.2,-15.38,0.49,-0.06,-0.24,633,635,0,0,0
2612199924,100488,29.87,0.58,44.33,85.54,92.84,-4040.04,325.2,-15.38,0.61,-0.06,-0.18,633,635,0,0,0
2612209931,100488,29.87,0.58,44.12,85.59,92.63,-4040.04,325.2,-15.38,0.55,0.06,0,633,635,0,0,0
2612219941,100488,29.87,0.58,44.34,85.54,92.87,-4040.04,325.2,-15.38,0.49,0,-0.06,633,635,0,0,0
2612229947,100488,29.87,0.58,44.11,85.58,92.62,-4040.04,325.2,-15.38,0.43,-0.12,-0.12,633,635,0,0,0
2612240902,100491,29.87,0.33,44.38,85.53,92.91,-4040.04,325.2,-15.38,0.31,-0.18,-0.06,633,635,0,0,0
2612250915,100491,29.87,0.33,44.12,85.58,92.65,-4040.04,325.2,-15.38,0.43,-0.12,0,633,635,0,0,0
2612260925,100491,29.87,0.33,44.47,85.53,93.01,-4040.04,325.2,-15.38,0.49,0.06,0,633,635,0,0,0
2612270933,100491,29.87,0.33,44.17,85.57,92.7,-4040.04,325.2,-15.38,0.31,0.06,0.06,633,635,0,0,0
2612280939,100491,29.87,0.33,44.3,85.56,92.84,-4040.04,325.2,-15.38,0.18,0,-0.12,633,635,0,0,0
2612291893,100490,29.87,0.41,43.92,85.59,92.45,-4040.04,325.2,-15.38,-0.18,0,-0.12,633,635,0,0,0
2612301904,100490,29.87,0.41,44.33,85.56,92.88,-4040.04,325.2,-15.38,-0.37,0.18,0.12,633,635,0,0,0
2612311909,100490,29.87,0.41,44.01,85.58,92.54,-4040.04,325.2,-15.38,-0.43,0.31,0.18,633,635,0,0,0
2612321914,100490,29.87,0.41,44.43,85.56,92.97,-4040.04,325.2,-15.38,-0.37,0.06,0,633,635,0,0,0
2612331921,100490,29.87,0.41,44.06,85.58,92.57,-4040.04,325.2,-15.38,-0.55,-0.06,0,633,635,0,0,0
2612342883,100490,29.87,0.41,44.56,85.55,93.09,-4040.04,325.2,-15.38,-0.67,0.06,0.06,633,635,0,0,0
2612352892,100490,29.87,0.41,44.2,85.57,92.7,-4040.04,325.2,-15.38,-0.61,0.24,0.06,633,635,0,0,0
2612362900,100490,29.87,0.41,44.37,85.55,92.87,-4040.04,325.2,-15.38,-0.55,0.24,0.06,633,635,0,0,0
2612372909,100490,29.87,0.41,44.03,85.59,92.52,-4040.04,325.2,-15.38,-0.31,0.12,0.12,633,635,0,0,0
2612382916,100490,29.87,0.41,44.45,85.56,92.96,-4040.04,325.2,-15.38,-0.18,0.18,0.12,633,635,0,0,0
2612393867,100491,29.87,0.33,44.09,85.58,92.58,-4040.04,325.2,-15.38,-0.24,0.24,0.06,633,635,0,0,0
2612403877,100491,29.87,0.33,43.63,85.59,92.12,-4007.81,319.34,2.93,-0.24,0.37,0.06,633,635,0,0,0
2612413885,100491,29.87,0.33,43.18,85.6,91.66,-4007.81,319.34,2.93,-0.06,0.37,-0.06,633,635,0,0,0
2612423890,100491,29.87,0.33,42.73,85.6,91.21,-4007.81,319.34,2.93,0.06,0.43,0,633,635,0,0,0
2612433896,100491,29.87,0.33,42.28,85.61,90.76,-4007.81,319.34,2.93,0.31,0.37,0.06,633,635,0,0,0
2612444860,100490,29.87,0.41,41.77,85.61,90.25,-4007.81,319.34,2.93,0.49,0.31,0.06,633,635,0,0,0
2612454863,100490,29.87,0.41,41.32,85.62,89.8,-4007.81,319.34,2.93,0.31,0.43,0.06,633,635,0,0,0
2612464870,100490,29.87,0.41,40.87,85.62,89.36,-4007.81,319.34,2.93,0.12,0.43,0,633,635,0,0,0
2612474875,100490,29.87,0.41,41.42,85.63,89.92,-4007.81,319.34,2.93,0,0.24,-0.06,633,635,0,0,0
2612484879,100490,29.87,0.41,40.94,85.62,89.42,-4007.81,319.34,2.93,-0.06,0.06,0.12,633,635,0,0,0
2612495867,100488,29.87,0.58,41.53,85.64,90.04,-4007.81,319.34,2.93,0,0.06,0.18,633,635,0,0,0
2612505880,100488,29.87,0.58,41.05,85.62,89.53,-4007.81,319.34,2.93,-0.12,0,0,633,635,0,0,0
2612515886,100488,29.87,0.58,40.57,85.62,89.04,-4007.81,319.34,2.93,-0.37,-0.06,-0.18,633,635,0,0,0
2612525890,100488,29.87,0.58,41.05,85.64,89.54,-4007.81,319.34,2.93,-0.43,-0.18,-0.24,633,635,0,0,0
2612535894,100488,29.87,0.58,40.6,85.61,89.07,-4007.81,319.34,2.93,-0.55,-0.31,-0.12,633,635,0,0,0
2612546860,100480,29.87,1.25,41.09,85.64,89.58,-4007.81,319.34,2.93,-0.24,-0.31,-0.06,633,635,0,0,0
2612556873,100480,29.87,1.25,40.67,85.6,89.13,-4007.81,319.34,2.93,-0.24,-0.06,0,633,635,0,0,0
2612566878,100480,29.87,1.25,41.12,85.64,89.6,-4007.81,319.34,2.93,-0.37,-0.12,-0.06,633,635,0,0,0
2612576888,100480,29.87,1.25,40.69,85.6,89.15,-4007.81,319.34,2.93,-0.24,-0.06,0,633,635,0,0,0
2612586896,100480,29.87,1.25,41.16,85.64,89.63,-4007.81,319.34,2.93,-0.06,0.06,0.06,633,635,0,0,0
2612597855,100496,29.88,1,40.7,85.61,89.16,-4007.81,319.34,2.93,0.31,0.18,0,633,635,0,0,0
2612607867,100496,29.88,1,41.18,85.64,89.67,-4007.81,319.34,2.93,0.37,0.12,-0.06,633,635,0,0,0
2612617872,100496,29.88,1,40.75,85.61,89.22,-4007.81,319.34,2.93,0.49,0.12,-0.06,633,635,0,0,0
2612627877,100496,29.88,1,41.25,85.65,89.75,-4007.81,319.34,2.93,0.67,0.18,-0.18,633,635,0,0,0
2612637886,100496,29.88,1,40.83,85.62,89.31,-4007.81,319.34,2.93,0.73,0.24,-0.24,633,635,0,0,0
2612648844,100495,29.87,0.75,41.41,85.65,89.92,-4007.81,319.34,2.93,0.73,0.31,-0.06,633,635,0,0,0
2612658853,100495,29.87,0.75,40.97,85.62,89.46,-4007.81,319.34,2.93,0.67,0.24,-0.06,633,635,0,0,0
2612668859,100495,29.87,0.75,41.64,85.65,90.16,-4007.81,319.34,2.93,0.61,0.31,-0.12,633,635,0,0,0
2612678869,100495,29.87,0.75,41.21,85.63,89.72,-4007.81,319.34,2.93,0.55,0.49,0.06,633,635,0,0,0
2612688877,100495,29.87,0.75,40.78,85.62,89.29,-4007.81,319.34,2.93,0.55,0.43,-0.06,633,635,0,0,0
2612699837,100495,29.87,0.5,41.36,85.65,89.9,-4007.81,319.34,2.93,0.49,0.24,-0.18,633,635,0,0,0
2612709846,100495,29.87,0.5,40.92,85.62,89.44,-4007.81,319.34,2.93,0.43,0.31,-0.24,633,635,0,0,0
2612719853,100495,29.87,0.5,41.46,85.63,90.01,-4015.87,330.32,-35.16,0.31,0.37,-0.18,633,635,0,0,0
2612729862,100495,29.87,0.5,42.01,85.61,90.56,-4015.87,330.32,-35.16,0,0.43,0.12,633,635,0,0,0
2612739871,100495,29.87,0.5,42.54,85.6,91.09,-4015.87,330.32,-35.16,-0.06,0.24,0.12,633,635,0,0,0
2612750827,100500,29.87,0.25,43.1,85.59,91.65,-4015.87,330.32,-35.16,-0.12,0.18,0.12,633,635,0,0,0
2612760835,100500,29.87,0.25,43.62,85.57,92.17,-4015.87,330.32,-35.16,-0.24,0.24,0.12,633,635,0,0,0
2612770845,100500,29.87,0.25,44.14,85.56,92.69,-4015.87,330.32,-35.16,-0.31,0.24,0.06,633,635,0,0,0
2612780853,100500,29.87,0.25,44.63,85.55,93.18,-4015.87,330.32,-35.16,-0.24,0.06,-0.06,633,635,0,0,0
2612790863,100500,29.87,0.25,45.11,85.53,93.66,-4015.87,330.32,-35.16,-0.31,-0.06,-0.06,633,635,0,0,0
2612801819,100496,29.88,0,45.64,85.52,94.19,-4015.87,330.32,-35.16,-0.31,0.06,0.18,633,635,0,0,0
2612811831,100496,29.88,0,46.11,85.5,94.66,-4015.87,330.32,-35.16,-0.37,-0.06,0.18,633,635,0,0,0
2612821837,100496,29.88,0,46.57,85.48,95.11,-4015.87,330.32,-35.16,-0.43,-0.18,0.18,633,635,0,0,0
2612831843,100496,29.88,0,47.01,85.47,95.55,-4015.87,330.32,-35.16,-0.49,-0.31,0.24,633,635,0,0,0
2612841849,100496,29.88,0,47.46,85.46,95.99,-4015.87,330.32,-35.16,-0.43,-0.37,0.12,633,635,0,0,0
2612852808,100503,29.87,-0.25,48.05,85.45,96.58,-4015.87,330.32,-35.16,-0.37,-0.31,0.12,633,635,0,0,0
2612862819,100503,29.87,-0.25,47.55,85.44,96.06,-4015.87,330.32,-35.16,-0.43,-0.18,0.37,633,635,0,0,0
2612872824,100503,29.87,-0.25,47.75,85.49,96.26,-4015.87,330.32,-35.16,-0.55,-0.12,0.37,633,635,0,0,0
2612882832,100503,29.87,-0.25,47.54,85.43,96.03,-4015.87,330.32,-35.16,-0.79,-0.06,0.31,633,635,0,0,0
2612892837,100503,29.87,-0.25,47.77,85.49,96.26,-4015.87,330.32,-35.16,-1.04,-0.12,0.18,633,635,0,0,0
2612903793,100506,29.87,-0.5,47.54,85.42,96.01,-4015.87,330.32,-35.16,-0.98,0.12,0.12,633,635,0,0,0
2612913803,100506,29.87,-0.5,47.78,85.48,96.25,-4015.87,330.32,-35.16,-0.85,0.18,0.12,633,635,0,0,0
2612923813,100506,29.87,-0.5,47.53,85.42,95.98,-4015.87,330.32,-35.16,-0.55,-0.06,0.06,633,635,0,0,0
2612933820,100506,29.87,-0.5,47.81,85.48,96.28,-4015.87,330.32,-35.16,-0.37,-0.06,-0.06,633,635,0,0,0
2612943830,100506,29.87,-0.5,47.57,85.43,96.02,-4015.87,330.32,-35.16,-0.31,0.31,0.06,633,635,0,0,0
2612954782,100498,29.88,-0.26,47.84,85.49,96.3,-4015.87,330.32,-35.16,0,0.37,0.06,633,635,0,0,0
2612964794,100498,29.88,-0.26,47.61,85.43,96.06,-4015.87,330.32,-35.16,0.24,0.18,-0.06,633,635,0,0,0
2612974802,100498,29.88,-0.26,47.77,85.5,96.23,-4015.87,330.32,-35.16,0.55,0.24,-0.12,633,635,0,0,0
2612984808,100498,29.88,-0.26,47.66,85.44,96.12,-4015.87,330.32,-35.16,0.79,0.43,-0.18,633,635,0,0,0
2612994819,100498,29.88,-0.26,47.33,85.47,95.81,-4015.87,330.32,-35.16,1.04,0.37,-0.43,633,635,0,0,0
2613005770,100496,29.88,-0.09,47.83,85.44,96.34,-4015.87,330.32,-35.16,1.16,0.61,-0.37,633,635,0,0,0
2613015778,100496,29.88,-0.09,47.5,85.45,96,-4015.87,330.32,-35.16,1.16,0.73,-0.12,633,635,0,0,0
2613025784,100496,29.88,-0.09,47.95,85.42,96.48,-4015.87,330.32,-35.16,1.1,0.55,-0.12,633,635,0,0,0
2613035791,100496,29.88,-0.09,47.62,85.44,96.14,-4015.87,330.32,-35.16,0.85,0.49,-0.18,633,635,0,0,0
2613045796,100496,29.88,-0.09,48.17,85.46,96.72,-3992.43,326.66,-65.92,0.79,0.49,-0.18,633,635,0,0,0
2613056760,100498,29.87,-0.26,48.76,85.46,97.32,-3992.43,326.66,-65.92,0.73,0.37,-0.37,633,635,0,0,0
2613066772,100498,29.87,-0.26,49.29,85.46,97.86,-3992.43,326.66,-65.92,0.79,0.31,-0.31,633,635,0,0,0
2613076781,100498,29.87,-0.26,49.79,85.45,98.37,-3992.43,326.66,-65.92,0.79,0.12,-0.12,633,635,0,0,0
2613086787,100498,29.87,-0.26,50.29,85.45,98.88,-3992.43,326.66,-65.92,0.55,0.12,0.06,633,635,0,0,0
2613096790,100498,29.87,-0.26,50.8,85.44,99.39,-3992.43,326.66,-65.92,0.12,0.18,0.12,633,635,0,0,0
2613107747,100498,29.87,-0.26,51.34,85.43,99.94,-3992.43,326.66,-65.92,-0.18,0.12,0.06,633,635,0,0,0
2613117760,100498,29.87,-0.26,51.82,85.43,100.42,-3992.43,326.66,-65.92,-0.31,-0.06,-0.06,633,635,0,0,0
2613127767,100498,29.87,-0.26,52.27,85.42,100.86,-3992.43,326.66,-65.92,-0.31,-0.31,0,633,635,0,0,0
2613137775,100498,29.87,-0.26,52.72,85.41,101.31,-3992.43,326.66,-65.92,-0.18,-0.31,0.18,633,635,0,0,0
2613147781,100498,29.87,-0.26,53.21,85.41,101.81,-3992.43,326.66,-65.92,-0.06,-0.24,0.18,633,635,0,0,0
2613158738,100515,29.87,-0.51,52.66,85.4,101.23,-3992.43,326.66,-65.92,0,-0.24,0.06,633,635,0,0,0
2613168749,100515,29.87,-0.51,53.11,85.41,101.7,-3992.43,326.66,-65.92,-0.12,-0.31,0.12,633,635,0,0,0
2613178756,100515,29.87,-0.51,52.62,85.4,101.18,-3992.43,326.66,-65.92,-0.37,-0.18,0.06,633,635,0,0,0
2613188760,100515,29.87,-0.51,53.1,85.41,101.68,-3992.43,326.66,-65.92,-0.43,0,0,633,635,0,0,0
2613198766,100515,29.87,-0.51,52.63,85.4,101.19,-3992.43,326.66,-65.92,-0.24,0,-0.06,633,635,0,0,0
2613209725,100510,29.87,-0.76,53.16,85.41,101.74,-3992.43,326.66,-65.92,-0.06,0,-0.06,633,635,0,0,0
2613219738,100510,29.87,-0.76,52.71,85.4,101.27,-3992.43,326.66,-65.92,0.12,0.18,0,633,635,0,0,0
2613229745,100510,29.87,-0.76,53.21,85.41,101.79,-3992.43,326.66,-65.92,0,0.12,-0.06,633,635,0,0,0
2613239754,100510,29.87,-0.76,52.76,85.4,101.32,-3992.43,326.66,-65.92,-0.24,0.18,-0.12,633,635,0,0,0
2613249758,100510,29.87,-0.76,53.27,85.4,101.85,-3992.43,326.66,-65.92,-0.24,0.31,0.12,633,635,0,0,0
2613260717,100503,29.87,-0.68,52.8,85.4,101.35,-3992.43,326.66,-65.92,-0.18,0.24,0.12,633,635,0,0,0
2613270729,100503,29.87,-0.68,53.32,85.42,101.89,-3992.43,326.66,-65.92,-0.06,0.24,-0.12,633,635,0,0,0
2613280735,100503,29.87,-0.68,52.88,85.4,101.43,-3992.43,326.66,-65.92,-0.06,0.31,0.06,633,635,0,0,0
2613290741,100503,29.87,-0.68,52.51,85.42,101.06,-3992.43,326.66,-65.92,-0.12,0.37,0.18,633,635,0,0,0
2613300748,100503,29.87,-0.68,52.98,85.41,101.55,-3992.43,326.66,-65.92,-0.06,0.49,0,633,635,0,0,0
2613311708,100503,29.87,-0.68,52.59,85.41,101.13,-3992.43,326.66,-65.92,-0.31,0.55,-0.06,633,635,0,0,0
2613321720,100503,29.87,-0.68,53.05,85.4,101.61,-3992.43,326.66,-65.92,-0.49,0.31,0.12,633,635,0,0,0
2613331727,100503,29.87,-0.68,52.66,85.41,101.19,-3992.43,326.66,-65.92,-0.43,0.18,0.24,633,635,0,0,0
2613341730,100503,29.87,-0.68,53.12,85.4,101.67,-3992.43,326.66,-65.92,-0.43,0.18,0.18,633,635,0,0,0
2613351737,100503,29.87,-0.68,52.72,85.41,101.25,-3992.43,326.66,-65.92,-0.31,0.24,-0.06,633,635,0,0,0
2613362698,100508,29.87,-0.93,52.9,85.36,101.43,-4024.66,340.58,-70.31,-0.06,0.24,-0.12,633,635,0,0,0
2613372710,100508,29.87,-0.93,53.04,85.3,101.58,-4024.66,340.58,-70.31,0.18,0.31,0,633,635,0,0,0
2613382717,100508,29.87,-0.93,53.14,85.24,101.67,-4024.66,340.58,-70.31,0.24,0.12,-0.06,633,635,0,0,0
2613392724,100508,29.87,-0.93,53.1,85.18,101.62,-4024.66,340.58,-70.31,0.31,-0.12,-0.06,633,635,0,0,0
2613402730,100508,29.87,-0.93,53.13,85.24,101.66,-4024.66,340.58,-70.31,0.31,-0.18,-0.12,633,635,0,0,0
2613413687,100504,29.87,-0.76,53.14,85.18,101.68,-4024.66,340.58,-70.31,0.31,-0.24,-0.12,633,635,0,0,0
2613423700,100504,29.87,-0.76,53.13,85.23,101.66,-4024.66,340.58,-70.31,0.49,-0.06,0,633,635,0,0,0
2613433705,100504,29.87,-0.76,53.22,85.17,101.75,-4024.66,340.58,-70.31,0.55,0.12,0.06,633,635,0,0,0
2613443711,100504,29.87,-0.76,53.13,85.23,101.67,-4024.66,340.58,-70.31,0.55,0,-0.06,633,635,0,0,0
2613453718,100504,29.87,-0.76,53.06,85.19,101.61,-4024.66,340.58,-70.31,0.37,-0.06,-0.12,633,635,0,0,0
2613464677,100502,29.88,-0.59,53.17,85.26,101.72,-4024.66,340.58,-70.31,0.18,0.06,0,633,635,0,0,0
2613474680,100502,29.88,-0.59,53.07,85.2,101.62,-4024.66,340.58,-70.31,0.06,0.12,0,633,635,0,0,0
2613484686,100502,29.88,-0.59,53.18,85.25,101.73,-4024.66,340.58,-70.31,-0.12,0.24,0.18,633,635,0,0,0
2613494689,100502,29.88,-0.59,53.06,85.19,101.6,-4024.66,340.58,-70.31,-0.12,0.12,0.12,633,635,0,0,0
2613504694,100502,29.88,-0.59,53.19,85.25,101.74,-4024.66,340.58,-70.31,-0.12,0.24,0.06,633,635,0,0,0
2613515685,100494,29.88,0.08,53.05,85.19,101.59,-4024.66,340.58,-70.31,-0.18,0.31,0,633,635,0,0,0
2613525697,100494,29.88,0.08,53.19,85.25,101.73,-4024.66,340.58,-70.31,-0.18,0.24,0.06,633,635,0,0,0
2613535701,100494,29.88,0.08,53.04,85.19,101.57,-4024.66,340.58,-70.31,-0.18,0.37,0,633,635,0,0,0
2613545706,100494,29.88,0.08,53.21,85.25,101.76,-4024.66,340.58,-70.31,-0.12,0.31,-0.18,633,635,0,0,0
2613555710,100494,29.88,0.08,53.03,85.19,101.56,-4024.66,340.58,-70.31,0,0.31,-0.12,633,635,0,0,0
2613566674,100492,29.88,0.25,53.26,85.26,101.8,-4024.66,340.58,-70.31,0.12,0.24,-0.18,633,635,0,0,0
2613576682,100492,29.88,0.25,53.07,85.2,101.61,-4024.66,340.58,-70.31,0.06,0.31,-0.06,633,635,0,0,0
2613586687,100492,29.88,0.25,53.26,85.26,101.81,-4024.66,340.58,-70.31,0.06,0.37,0.12,633,635,0,0,0
2613596693,100492,29.88,0.25,53.07,85.2,101.61,-4024.66,340.58,-70.31,0,0.31,0.18,633,635,0,0,0
2613606698,100492,29.88,0.25,53.24,85.26,101.78,-4024.66,340.58,-70.31,-0.18,0.31,0.31,633,635,0,0,0
2613617665,100490,29.87,0.41,53.05,85.19,101.58,-4024.66,340.58,-70.31,-0.06,0.31,0.31,633,635,0,0,0
2613627670,100490,29.87,0.41,53.23,85.25,101.77,-4024.66,340.58,-70.31,0,0.37,0.06,633,635,0,0,0
2613637680,100490,29.87,0.41,53.04,85.19,101.57,-4024.66,340.58,-70.31,0,0.37,-0.06,633,635,0,0,0
2613647685,100490,29.87,0.41,53.25,85.25,101.79,-4024.66,340.58,-70.31,-0.12,0.31,-0.06,633,635,0,0,0
2613657689,100490,29.87,0.41,53.04,85.2,101.56,-4024.66,340.58,-70.31,-0.31,0.24,0.06,633,635,0,0,0
2613668657,100491,29.88,0.33,53.28,85.26,101.81,-4024.66,340.58,-70.31,-0.49,0.18,0.06,633,635,0,0,0
2613678664,100491,29.88,0.33,53.03,85.3,101.55,-3988.77,309.08,-49.07,-0.61,0.06,0,633,635,0,0,0
2613688672,100491,29.88,0.33,52.76,85.35,101.28,-3988.77,309.08,-49.07,-0.49,0,0.12,633,635,0,0,0
2613698676,100491,29.88,0.33,52.48,85.39,101,-3988.77,309.08,-49.07,-0.43,0,0.12,633,635,0,0,0
2613708684,100491,29.88,0.33,52.19,85.43,100.7,-3988.77,309.08,-49.07,-0.18,-0.18,0.06,633,635,0,0,0
2613719643,100490,29.88,0.41,51.85,85.48,100.37,-3988.77,309.08,-49.07,0,-0.24,-0.06,633,635,0,0,0
2613729649,100490,29.88,0.41,51.57,85.53,100.09,-3988.77,309.08,-49.07,0,-0.06,0,633,635,0,0,0
2613739658,100490,29.88,0.41,51.27,85.57,99.79,-3988.77,309.08,-49.07,-0.18,-0.12,0.06,633,635,0,0,0
2613749665,100490,29.88,0.41,50.97,85.62,99.48,-3988.77,309.08,-49.07,-0.24,-0.12,0.06,633,635,0,0,0
2613759669,100490,29.88,0.41,50.68,85.67,99.2,-3988.77,309.08,-49.07,0,-0.06,-0.06,633,635,0,0,0
2613770628,100490,29.87,0.41,50.36,85.72,98.89,-3988.77,309.08,-49.07,0.49,-0.06,-0.31,633,635,0,0,0
2613780639,100490,29.87,0.41,50.62,85.68,99.17,-3988.77,309.08,-49.07,0.61,0.06,-0.18,633,635,0,0,0
2613790649,100490,29.87,0.41,50.34,85.72,98.88,-3988.77,309.08,-49.07,0.67,0.12,-0.12,633,635,0,0,0
2613800655,100490,29.87,0.41,50.62,85.68,99.18,-3988.77,309.08,-49.07,0.61,0.06,0,633,635,0,0,0
2613810659,100490,29.87,0.41,50.34,85.72,98.89,-3988.77,309.08,-49.07,0.55,0.12,-0.12,633,635,0,0,0
2613821614,100490,29.87,0.41,50.67,85.68,99.25,-3988.77,309.08,-49.07,0.55,0.24,-0.24,633,635,0,0,0
2613831625,100490,29.87,0.41,50.38,85.71,98.94,-3988.77,309.08,-49.07,0.67,0.24,-0.31,633,635,0,0,0
2613841633,100490,29.87,0.41,50.64,85.67,99.23,-3988.77,309.08,-49.07,0.73,0.18,-0.24,633,635,0,0,0
2613851640,100490,29.87,0.41,50.38,85.71,98.96,-3988.77,309.08,-49.07,0.73,0.24,-0.06,633,635,0,0,0
2613861645,100490,29.87,0.41,50.62,85.67,99.22,-3988.77,309.08,-49.07,0.67,0.18,-0.12,633,635,0,0,0
2613872605,100491,29.87,0.33,50.36,85.71,98.95,-3988.77,309.08,-49.07,0.49,0.18,-0.06,633,635,0,0,0
2613882617,100491,29.87,0.33,50.62,85.67,99.23,-3988.77,309.08,-49.07,0.24,0.43,0.06,633,635,0,0,0
2613892626,100491,29.87,0.33,50.41,85.7,99,-3988.77,309.08,-49.07,0.18,0.43,0.06,633,635,0,0,0
2613902632,100491,29.87,0.33,50.56,85.65,99.16,-3988.77,309.08,-49.07,0.06,0.37,0.12,633,635,0,0,0
2613912637,100491,29.87,0.33,50.45,85.7,99.04,-3988.77,309.08,-49.07,-0.06,0.37,0.06,633,635,0,0,0
2613923593,100492,29.87,0.25,50.26,85.64,98.85,-3988.77,309.08,-49.07,-0.18,0.31,0.06,633,635,0,0,0
2613933606,100492,29.87,0.25,50.47,85.7,99.06,-3988.77,309.08,-49.07,0,0.37,0.12,633,635,0,0,0
2613943618,100492,29.87,0.25,50.08,85.72,98.67,-3988.77,309.08,-49.07,-0.12,0.31,0.06,633,635,0,0,0
2613953624,100492,29.87,0.25,50.51,85.7,99.12,-3988.77,309.08,-49.07,-0.31,0.18,0.12,633,635,0,0,0
2613963628,100492,29.87,0.25,50.1,85.71,98.68,-3988.77,309.08,-49.07,-0.37,-0.06,0.18,633,635,0,0,0
2613974585,100492,29.87,0.25,50.58,85.7,99.18,-3988.77,309.08,-49.07,-0.43,0.06,0.18,633,635,0,0,0
2613984597,100492,29.87,0.25,50.19,85.71,98.77,-3988.77,309.08,-49.07,-0.24,0.18,0.18,633,635,0,0,0
2613994608,100492,29.87,0.25,50.02,85.65,98.59,-3998.29,344.97,-43.95,-0.24,0.12,0.18,633,635,0,0,0
2614004617,100492,29.87,0.25,49.85,85.59,98.41,-3998.29,344.97,-43.95,-0.37,0.06,0.24,633,635,0,0,0
2614017623,100492,29.87,0.25,49.62,85.51,98.16,-3998.29,344.97,-43.95,-0.43,-0.06,0.12,633,635,0,0,0
2614027620,100494,29.87,0.08,49.46,85.45,98,-3998.29,344.97,-43.95,-0.43,0.12,0.24,633,635,0,0,0
2614037629,100494,29.87,0.08,49.31,85.39,97.84,-3998.29,344.97,-43.95,-0.37,0.18,0.43,633,635,0,0,0
2614047636,100494,29.87,0.08,49.14,85.33,97.66,-3998.29,344.97,-43.95,-0.43,0,0.37,633,635,0,0,0
2614057643,100494,29.87,0.08,48.96,85.27,97.47,-3998.29,344.97,-43.95,-0.43,-0.12,0.18,633,635,0,0,0
2614067649,100494,29.87,0.08,48.81,85.22,97.32,-3998.29,344.97,-43.95,-0.43,0,-0.06,633,635,0,0,0
2614077646,100495,29.87,-0.01,48.67,85.16,97.17,-3998.29,344.97,-43.95,-0.31,-0.06,-0.06,633,635,0,0,0
2614087654,100495,29.87,-0.01,48.83,85.22,97.33,-3998.29,344.97,-43.95,-0.43,0.06,0.12,633,635,0,0,0
2614097661,100495,29.87,-0.01,48.69,85.16,97.17,-3998.29,344.97,-43.95,-0.49,0.24,0.12,633,635,0,0,0
2614107670,100495,29.87,-0.01,48.86,85.22,97.36,-3998.29,344.97,-43.95,-0.37,0.37,0.06,633,635,0,0,0
2614117676,100495,29.87,-0.01,48.66,85.16,97.14,-3998.29,344.97,-43.95,-0.24,0.24,0.12,633,635,0,0,0
2614127671,100492,29.87,0.25,48.87,85.22,97.36,-3998.29,344.97,-43.95,-0.18,0.12,0.12,633,635,0,0,0
2614137682,100492,29.87,0.25,48.65,85.16,97.13,-3998.29,344.97,-43.95,-0.06,0.24,0.24,633,635,0,0,0
2614147689,100492,29.87,0.25,48.87,85.22,97.37,-3998.29,344.97,-43.95,0.06,0.18,0.12,633,635,0,0,0
2614157695,100492,29.87,0.25,48.62,85.16,97.1,-3998.29,344.97,-43.95,-0.06,0.12,0,633,635,0,0,0
2614167702,100492,29.87,0.25,48.89,85.22,97.38,-3998.29,344.97,-43.95,0.06,0.06,-0.06,633,635,0,0,0
2614178539,100491,29.87,0.33,48.61,85.16,97.09,-3998.29,344.97,-43.95,0.24,0.18,-0.06,633,635,0,0,0
2614188545,100491,29.87,0.33,48.9,85.22,97.4,-3998.29,344.97,-43.95,0.49,0.18,0,633,635,0,0,0
2614198553,100491,29.87,0.33,48.6,85.17,97.09,-3998.29,344.97,-43.95,0.49,0.12,-0.06,633,635,0,0,0
2614208560,100491,29.87,0.33,48.93,85.22,97.44,-3998.29,344.97,-43.95,0.49,0.12,-0.12,633,635,0,0,0
2614218565,100491,29.87,0.33,48.6,85.17,97.1,-3998.29,344.97,-43.95,0.49,0.06,-0.24,633,635,0,0,0
2614229523,100490,29.87,0.41,49.02,85.23,97.54,-3998.29,344.97,-43.95,0.43,0.18,-0.12,633,635,0,0,0
2614239531,100490,29.87,0.41,48.67,85.18,97.18,-3998.29,344.97,-43.95,0.24,0.18,0,633,635,0,0,0
2614249539,100490,29.87,0.41,49.04,85.24,97.57,-3998.29,344.97,-43.95,0.24,0.18,-0.12,633,635,0,0,0
2614259547,100490,29.87,0.41,48.72,85.19,97.23,-3998.29,344.97,-43.95,0.31,0.24,-0.12,633,635,0,0,0
2614269550,100490,29.87,0.41,49.05,85.24,97.58,-3998.29,344.97,-43.95,0.31,0.37,-0.06,633,635,0,0,0
2614280515,100492,29.87,0.25,48.74,85.19,97.26,-3998.29,344.97,-43.95,0.31,0.31,-0.18,633,635,0,0,0
2614290524,100492,29.87,0.25,48.72,85.25,97.25,-3998.29,344.97,-43.95,0.24,0.31,-0.18,633,635,0,0,0
2614300529,100492,29.87,0.25,48.77,85.19,97.3,-3998.29,344.97,-43.95,0.12,0.31,-0.06,633,635,0,0,0
2614310534,100492,29.87,0.25,48.82,85.25,97.35,-4006.35,292.24,-41.02,0.06,0.06,-0.12,633,635,0,0,0
2614320537,100492,29.87,0.25,48.85,85.31,97.39,-4006.35,292.24,-41.02,0.06,-0.12,-0.12,633,635,0,0,0
2614331505,100491,29.87,0.33,48.91,85.38,97.45,-4006.35,292.24,-41.02,0.18,0.06,-0.12,633,635,0,0,0
2614341515,100491,29.87,0.33,48.95,85.44,97.49,-4006.35,292.24,-41.02,0.37,-0.06,-0.12,633,635,0,0,0
2614351524,100491,29.87,0.33,48.98,85.5,97.53,-4006.35,292.24,-41.02,0.31,-0.12,-0.12,633,635,0,0,0
2614361531,100491,29.87,0.33,49.02,85.56,97.58,-4006.35,292.24,-41.02,0.12,0,0.12,633,635,0,0,0
2614371537,100491,29.87,0.33,49.08,85.61,97.64,-4006.35,292.24,-41.02,-0.06,0.06,0.12,633,635,0,0,0
2614382494,100491,29.87,0.33,49.15,85.68,97.71,-4006.35,292.24,-41.02,-0.12,0.12,0.06,633,635,0,0,0
2614392499,100491,29.87,0.33,49.22,85.74,97.79,-4006.35,292.24,-41.02,-0.24,0.24,0.06,633,635,0,0,0
2614402504,100491,29.87,0.33,49.27,85.79,97.84,-4006.35,292.24,-41.02,-0.18,0.06,0.12,633,635,0,0,0
2614412511,100491,29.87,0.33,49.32,85.85,97.89,-4006.35,292.24,-41.02,-0.12,0.06,0.12,633,635,0,0,0
2614422514,100491,29.87,0.33,49.36,85.91,97.93,-4006.35,292.24,-41.02,-0.37,0,0.18,633,635,0,0,0
2614433482,100491,29.87,0.33,49.4,85.97,97.97,-4006.35,292.24,-41.02,-0.55,0,0.24,633,635,0,0,0
2614443493,100491,29.87,0.33,49.5,86.03,98.07,-4006.35,292.24,-41.02,-0.67,0,0.31,633,635,0,0,0
2614453497,100491,29.87,0.33,49.42,85.97,97.99,-4006.35,292.24,-41.02,-0.55,0.18,0.18,633,635,0,0,0
2614463502,100491,29.87,0.33,49.48,86.02,98.03,-4006.35,292.24,-41.02,-0.49,0.31,0.12,633,635,0,0,0
2614473512,100491,29.87,0.33,49.43,85.97,97.99,-4006.35,292.24,-41.02,-0.49,0.12,0.06,633,635,0,0,0
2614484472,100489,29.86,0.5,49.44,86.02,97.98,-4006.35,292.24,-41.02,-0.43,0,0.24,633,635,0,0,0
2614494479,100489,29.86,0.5,49.44,85.97,97.99,-4006.35,292.24,-41.02,-0.43,0,0.31,633,635,0,0,0
2614504488,100489,29.86,0.5,49.45,86.02,97.99,-4006.35,292.24,-41.02,-0.37,0.06,0.12,633,635,0,0,0
2614514491,100489,29.86,0.5,49.47,85.96,98.01,-4006.35,292.24,-41.02,-0.31,0.18,0.24,633,635,0,0,0
2614524498,100489,29.86,0.5,49.44,86.01,97.97,-4006.35,292.24,-41.02,-0.31,0.18,0.18,633,635,0,0,0
2614535481,100488,29.87,0.58,49.5,85.95,98.04,-4006.35,292.24,-41.02,-0.24,0.18,0.06,633,635,0,0,0
2614545493,100488,29.87,0.58,49.46,86,97.99,-4006.35,292.24,-41.02,0.06,0.31,0,633,635,0,0,0
2614555499,100488,29.87,0.58,49.54,85.95,98.07,-4006.35,292.24,-41.02,0.12,0.55,0,633,635,0,0,0
2614565507,100488,29.87,0.58,49.47,86,98,-4006.35,292.24,-41.02,0.12,0.49,0.12,633,635,0,0,0
2614575515,100488,29.87,0.58,49.47,85.94,98,-4006.35,292.24,-41.02,0.18,0.24,0.06,633,635,0,0,0
2614586468,100486,29.87,0.75,49.49,86,98.02,-4006.35,292.24,-41.02,0.18,0.24,-0.06,633,635,0,0,0
2614596477,100486,29.87,0.75,49.43,85.95,97.97,-4006.35,292.24,-41.02,0.24,0.18,0,633,635,0,0,0
2614606483,100486,29.87,0.75,49.5,86,98.04,-4006.35,292.24,-41.02,0.43,0.31,-0.06,633,635,0,0,0
2614616492,100486,29.87,0.75,49.41,85.95,97.96,-4006.35,292.24,-41.02,0.55,0.37,-0.24,633,635,0,0,0
2614626496,100486,29.87,0.75,49.5,86.01,98.06,-4006.35,292.24,-41.02,0.73,0.24,-0.24,633,635,0,0,0
2614637454,100492,29.87,0.5,49.12,85.96,97.67,-3990.23,333.25,-20.51,0.43,0.24,-0.12,633,635,0,0,0
2614647468,100492,29.87,0.5,48.79,85.91,97.34,-3990.23,333.25,-20.51,0.31,0.37,-0.12,633,635,0,0,0
2614657475,100492,29.87,0.5,48.46,85.87,97.01,-3990.23,333.25,-20.51,0.31,0.31,-0.18,633,635,0,0,0
2614667482,100492,29.87,0.5,48.11,85.82,96.65,-3990.23,333.25,-20.51,0.37,0.06,-0.18,633,635,0,0,0
2614677491,100492,29.87,0.5,47.76,85.78,96.3,-3990.23,333.25,-20.51,0.31,0.06,-0.12,633,635,0,0,0
2614688441,100494,29.87,0.25,47.4,85.73,95.94,-3990.23,333.25,-20.51,0.24,0.18,-0.12,633,635,0,0,0
2614698451,100494,29.87,0.25,47.06,85.68,95.61,-3990.23,333.25,-20.51,0.43,0.12,-0.18,633,635,0,0,0
2614708457,100494,29.87,0.25,46.74,85.64,95.28,-3990.23,333.25,-20.51,0.37,0.12,-0.31,633,635,0,0,0
2614718465,100494,29.87,0.25,46.4,85.59,94.94,-3990.23,333.25,-20.51,0.06,-0.06,-0.24,633,635,0,0,0
2614728472,100494,29.87,0.25,46.08,85.55,94.61,-3990.23,333.25,-20.51,-0.24,0.06,0.06,633,635,0,0,0
2614739427,100494,29.87,0.08,45.74,85.49,94.27,-3990.23,333.25,-20.51,-0.06,0.12,0.18,633,635,0,0,0
2614749437,100494,29.87,0.08,45.39,85.44,93.92,-3990.23,333.25,-20.51,0.12,-0.18,0.06,633,635,0,0,0
2614759443,100494,29.87,0.08,45.07,85.4,93.59,-3990.23,333.25,-20.51,0,-0.12,0.06,633,635,0,0,0
2614769450,100494,29.87,0.08,44.8,85.34,93.31,-3990.23,333.25,-20.51,-0.06,0,0.18,633,635,0,0,0
2614779455,100494,29.87,0.08,45.06,85.4,93.59,-3990.23,333.25,-20.51,-0.12,0.06,0.12,633,635,0,0,0
2614790417,100490,29.87,0.41,44.71,85.35,93.22,-3990.23,333.25,-20.51,-0.18,0,0,633,635,0,0,0
2614800427,100490,29.87,0.41,45.05,85.4,93.57,-3990.23,333.25,-20.51,-0.31,0.06,0,633,635,0,0,0
2614810435,100490,29.87,0.41,44.68,85.35,93.19,-3990.23,333.25,-20.51,-0.18,0.06,0.18,633,635,0,0,0
2614820441,100490,29.87,0.41,45.08,85.4,93.61,-3990.23,333.25,-20.51,-0.12,0.18,0.31,633,635,0,0,0
2614830446,100490,29.87,0.41,44.66,85.38,93.16,-3990.23,333.25,-20.51,-0.18,0.24,0.24,633,635,0,0,0
2614841404,100488,29.86,0.58,45.2,85.4,93.73,-3990.23,333.25,-20.51,-0.31,0.31,0.12,633,635,0,0,0
2614851412,100488,29.86,0.58,44.78,85.38,93.28,-3990.23,333.25,-20.51,-0.24,0.31,0.18,633,635,0,0,0
2614861421,100488,29.86,0.58,45.28,85.4,93.8,-3990.23,333.25,-20.51,-0.31,0.31,0.18,633,635,0,0,0
2614871428,100488,29.86,0.58,44.87,85.38,93.36,-3990.23,333.25,-20.51,-0.37,0.43,0.24,633,635,0,0,0
2614881438,100488,29.86,0.58,45.37,85.41,93.88,-3990.23,333.25,-20.51,-0.55,0.37,0.12,633,635,0,0,0
2614892393,100493,29.86,0.33,44.93,85.38,93.41,-3990.23,333.25,-20.51,-0.43,0.49,0.06,633,635,0,0,0
2614902400,100493,29.86,0.33,45.42,85.41,93.92,-3990.23,333.25,-20.51,-0.37,0.37,0.12,633,635,0,0,0
2614912410,100493,29.86,0.33,44.98,85.38,93.45,-3990.23,333.25,-20.51,-0.31,0.12,0.12,633,635,0,0,0
2614922415,100493,29.86,0.33,45.43,85.42,93.93,-3990.23,333.25,-20.51,-0.12,0.12,0.18,633,635,0,0,0
2614932421,100493,29.86,0.33,45.01,85.38,93.48,-3990.23,333.25,-20.51,0.06,0.24,0.18,633,635,0,0,0
2614943382,100491,29.86,0.33,45.42,85.43,93.92,-3990.23,333.25,-20.51,0.12,0.18,0.12,633,635,0,0,0
2614953395,100491,29.86,0.33,45.81,85.48,94.31,-4031.98,321.53,-30.76,0.18,0.18,0.06,633,635,0,0,0
2614963400,100491,29.86,0.33,46.19,85.52,94.7,-4031.98,321.53,-30.76,0.37,0.12,0,633,635,0,0,0
2614973409,100491,29.86,0.33,46.55,85.56,95.07,-4031.98,321.53,-30.76,0.37,-0.06,-0.06,633,635,0,0,0
2614983415,100491,29.86,0.33,46.92,85.61,95.44,-4031.98,321.53,-30.76,0.18,-0.12,0,633,635,0,0,0
2614994374,100491,29.87,0.33,47.52,85.62,96.04,-4031.98,321.53,-30.76,0.18,0.06,0.06,633,635,0,0,0
2615004382,100491,29.87,0.33,47.04,85.6,95.56,-4031.98,321.53,-30.76,0.18,0,0,633,635,0,0,0
2615014394,100491,29.87,0.33,46.62,85.59,95.13,-4031.98,321.53,-30.76,0.18,-0.06,-0.24,633,635,0,0,0
2615024399,100491,29.87,0.33,47.13,85.62,95.67,-4031.98,321.53,-30.76,0.18,0,-0.24,633,635,0,0,0
2615034406,100491,29.87,0.33,46.68,85.59,95.19,-4031.98,321.53,-30.76,0.18,-0.12,0,633,635,0,0,0
2615045361,100488,29.87,0.58,47.24,85.62,95.78,-4031.98,321.53,-30.76,0.12,0,-0.06,633,635,0,0,0
2615055371,100488,29.87,0.58,46.79,85.59,95.31,-4031.98,321.53,-30.76,0.18,0.06,-0.18,633,635,0,0,0
2615065376,100488,29.87,0.58,47.34,85.62,95.88,-4031.98,321.53,-30.76,0.18,0,-0.12,633,635,0,0,0
2615075384,100488,29.87,0.58,46.87,85.6,95.4,-4031.98,321.53,-30.76,0.12,0.06,-0.12,633,635,0,0,0
2615085395,100488,29.87,0.58,47.51,85.61,96.05,-4031.98,321.53,-30.76,0.18,0.12,-0.18,633,635,0,0,0
2615096352,100491,29.87,0.33,47,85.6,95.52,-4031.98,321.53,-30.76,0.18,0.12,-0.12,633,635,0,0,0
2615106361,100491,29.87,0.33,46.6,85.59,95.13,-4031.98,321.53,-30.76,0.12,0,-0.18,633,635,0,0,0
2615116367,100491,29.87,0.33,47.11,85.62,95.67,-4031.98,321.53,-30.76,0.18,-0.06,-0.06,633,635,0,0,0
2615126376,100491,29.87,0.33,46.69,85.59,95.22,-4031.98,321.53,-30.76,0.12,0.18,0.06,633,635,0,0,0
2615136383,100491,29.87,0.33,47.25,85.62,95.8,-4031.98,321.53,-30.76,0,0.31,0.06,633,635,0,0,0
2615147340,100486,29.87,0.75,46.77,85.59,95.3,-4031.98,321.53,-30.76,0.12,0.24,0,633,635,0,0,0
2615157351,100486,29.87,0.75,47.33,85.62,95.89,-4031.98,321.53,-30.76,0.24,0.18,0.06,633,635,0,0,0
2615167358,100486,29.87,0.75,46.87,85.6,95.41,-4031.98,321.53,-30.76,0.31,0.12,-0.12,633,635,0,0,0
2615177367,100486,29.87,0.75,47.54,85.61,96.1,-4031.98,321.53,-30.76,0.31,0.12,-0.18,633,635,0,0,0
2615187376,100486,29.87,0.75,47.09,85.6,95.63,-4031.98,321.53,-30.76,0.37,0.24,-0.12,633,635,0,0,0
2615198331,100486,29.87,0.75,46.61,85.59,95.16,-4031.98,321.53,-30.76,0.37,0.24,0.06,633,635,0,0,0
2615208344,100486,29.87,0.75,47.17,85.61,95.74,-4031.98,321.53,-30.76,0.31,0.31,0,633,635,0,0,0
2615218351,100486,29.87,0.75,46.75,85.59,95.3,-4031.98,321.53,-30.76,0.18,0.31,0,633,635,0,0,0
2615228358,100486,29.87,0.75,47.33,85.61,95.9,-4031.98,321.53,-30.76,0,0.31,0.06,633,635,0,0,0
2615238365,100486,29.87,0.75,46.89,85.6,95.44,-4031.98,321.53,-30.76,-0.06,0.31,0.12,633,635,0,0,0
2615249317,100488,29.87,0.58,47.46,85.64,96.01,-4031.98,321.53,-30.76,-0.12,0.12,0.06,633,635,0,0,0
2615259326,100488,29.87,0.58,47.04,85.6,95.59,-4031.98,321.53,-30.76,-0.31,0.12,0,633,635,0,0,0
2615269334,100488,29.87,0.58,47.43,85.66,95.99,-3999.02,295.9,-43.95,-0.31,0.18,0.12,633,635,0,0,0
2615279341,100488,29.87,0.58,47.82,85.7,96.39,-3999.02,295.9,-43.95,-0.37,0.18,0.18,633,635,0,0,0
2615289347,100488,29.87,0.58,48.22,85.74,96.78,-3999.02,295.9,-43.95,-0.37,0.12,0.31,633,635,0,0,0
2615300303,100487,29.87,0.66,48.63,85.79,97.2,-3999.02,295.9,-43.95,-0.37,0,0.24,633,635,0,0,0
2615310310,100487,29.87,0.66,49,85.83,97.57,-3999.02,295.9,-43.95,-0.31,-0.12,0.06,633,635,0,0,0
2615320320,100487,29.87,0.66,49.39,85.87,97.96,-3999.02,295.9,-43.95,-0.37,-0.06,0.06,633,635,0,0,0
2615330325,100487,29.87,0.66,49.81,85.91,98.38,-3999.02,295.9,-43.95,-0.43,0.06,0.18,633,635,0,0,0
2615340330,100487,29.87,0.66,50.18,85.96,98.75,-3999.02,295.9,-43.95,-0.37,0,0.12,633,635,0,0,0
2615351296,100487,29.87,0.66,49.77,85.9,98.32,-3999.02,295.9,-43.95,-0.18,-0.12,0.12,633,635,0,0,0
2615361305,100487,29.87,0.66,50.14,85.95,98.71,-3999.02,295.9,-43.95,0,-0.24,0,633,635,0,0,0
2615371310,100487,29.87,0.66,49.72,85.9,98.27,-3999.02,295.9,-43.95,0.18,-0.37,-0.18,633,635,0,0,0
2615381317,100487,29.87,0.66,50.19,85.95,98.77,-3999.02,295.9,-43.95,0.06,0,-0.06,633,635,0,0,0
2615391328,100487,29.87,0.66,49.74,85.9,98.29,-3999.02,295.9,-43.95,0,0.12,0,628,637,0,0,0
2615402302,100495,29.87,0.41,50.23,85.95,98.82,-3999.02,295.9,-43.95,0.43,-0.18,-0.12,628,637,0,0,0
2615412300,100495,29.87,0.41,49.74,85.91,98.31,-3999.02,295.9,-43.95,0.92,-0.31,-0.06,628,637,0,0,0
2615422296,100495,29.87,0.41,50.27,85.94,98.87,-3999.02,295.9,-43.95,0.55,0.12,0,628,637,0,0,0
2615432291,100495,29.87,0.41,49.8,85.91,98.37,-3999.02,295.9,-43.95,0.06,0.24,0,628,637,0,0,0
2615442289,100495,29.87,0.41,50.31,85.95,98.92,-3999.02,295.9,-43.95,0.24,0.06,-0.06,628,637,0,0,0
2615452285,100495,29.87,0.41,49.83,85.91,98.41,-3999.02,295.9,-43.95,0.61,0.12,-0.06,628,637,0,0,0
2615462287,100494,29.87,0.16,50.42,85.95,99.03,-3999.02,295.9,-43.95,0.73,0.43,-0.24,628,637,0,0,0
2615472287,100494,29.87,0.16,49.98,85.92,98.57,-3999.02,295.9,-43.95,0.31,0.49,-0.24,628,637,0,0,0
2615482284,100494,29.87,0.16,49.52,85.9,98.11,-3999.02,295.9,-43.95,0.06,0.43,0,628,637,0,0,0
2615492285,100494,29.87,0.16,50.04,85.93,98.66,-3999.02,295.9,-43.95,0.12,0.12,0.06,628,637,0,0,0
2615502280,100494,29.87,0.16,49.57,85.9,98.16,-3999.02,295.9,-43.95,0,0.24,-0.06,628,637,0,0,0
2615512279,100490,29.88,0.41,50.18,85.94,98.79,-3999.02,295.9,-43.95,0.12,0.61,-0.18,628,637,0,0,0
2615522279,100490,29.88,0.41,49.75,85.91,98.35,-3999.02,295.9,-43.95,0.49,0.67,-0.12,628,637,0,0,0
2615532275,100490,29.88,0.41,50.3,85.95,98.93,-3999.02,295.9,-43.95,0.61,0.31,-0.06,628,637,0,0,0
2615542273,100490,29.88,0.41,49.77,85.91,98.38,-3999.02,295.9,-43.95,0.61,-0.18,-0.12,628,637,0,0,0
2615552271,100490,29.88,0.41,50.3,85.93,98.94,-3999.02,295.9,-43.95,0.37,-0.12,-0.18,628,637,0,0,0
2615562264,100491,29.88,0.33,49.81,85.91,98.42,-3999.02,295.9,-43.95,0.43,0.18,-0.12,628,637,0,0,0
2615572261,100491,29.88,0.33,50.35,85.91,99,-3999.02,295.9,-43.95,0.43,0.31,-0.12,628,637,0,0,0
2615582259,100491,29.88,0.33,49.9,85.91,98.53,-3999.02,295.9,-43.95,0.49,0.18,-0.06,628,637,0,0,0
2615592255,100491,29.88,0.33,50.42,85.91,99.07,-3997.56,314.21,-164.79,0.43,0.06,0.06,628,637,0,0,0
2615602250,100491,29.88,0.33,50.97,85.9,99.63,-3997.56,314.21,-164.79,0.12,0.24,-0.12,628,637,0,0,0
2615612245,100491,29.87,0.33,51.52,85.89,100.18,-3997.56,314.21,-164.79,0.06,0.24,-0.12,628,637,0,0,0
2615622244,100491,29.87,0.33,52.04,85.87,100.7,-3997.56,314.21,-164.79,-0.06,0,-0.06,628,637,0,0,0
2615632239,100491,29.87,0.33,52.55,85.86,101.21,-3997.56,314.21,-164.79,-0.43,0.06,0,628,637,0,0,0
2615642234,100491,29.87,0.33,53.07,85.84,101.73,-3997.56,314.21,-164.79,-0.49,0.12,0.06,628,637,0,0,0
2615652237,100491,29.87,0.33,53.57,85.83,102.23,-3997.56,314.21,-164.79,-0.43,0,0.12,628,637,0,0,0
2615662235,100491,29.87,0.33,54.03,85.81,102.68,-3997.56,314.21,-164.79,-0.37,-0.31,0.18,628,637,0,0,0
2615672242,100491,29.87,0.33,54.5,85.79,103.14,-3997.56,314.21,-164.79,-0.31,-0.18,0.24,628,637,0,0,0
2615682249,100491,29.87,0.33,54.99,85.78,103.64,-3997.56,314.21,-164.79,-0.31,0.06,0.24,628,637,0,0,0
2615692254,100491,29.87,0.33,55.49,85.76,104.13,-3997.56,314.21,-164.79,-0.43,0.12,0.24,628,637,0,0,0
2615702262,100491,29.87,0.33,55.98,85.74,104.62,-3997.56,314.21,-164.79,-0.49,0.06,0.18,628,637,0,0,0
2615712258,100489,29.86,0.5,56.46,85.72,105.09,-3997.56,314.21,-164.79,-0.43,0,0,628,637,0,0,0
2615722268,100489,29.86,0.5,56.95,85.7,105.58,-3997.56,314.21,-164.79,-0.31,0.06,0.06,628,637,0,0,0
2615732274,100489,29.86,0.5,57.44,85.69,106.07,-3997.56,314.21,-164.79,-0.31,0.12,0,628,637,0,0,0
2615742281,100489,29.86,0.5,57.94,85.67,106.56,-3997.56,314.21,-164.79,-0.37,0.24,0.06,628,637,0,0,0
2615752287,100489,29.86,0.5,58.44,85.65,107.06,-3997.56,314.21,-164.79,-0.37,0.31,0.18,628,637,0,0,0
2615763229,100493,29.86,0.25,59,85.62,107.62,-3997.56,314.21,-164.79,-0.18,0.49,0.18,628,637,0,0,0
2615773240,100493,29.86,0.25,59.54,85.6,108.16,-3997.56,314.21,-164.79,0.12,0.67,0.12,628,637,0,0,0
2615783243,100493,29.86,0.25,60.05,85.58,108.67,-3997.56,314.21,-164.79,0.12,0.49,0.12,628,637,0,0,0
2615793247,100493,29.86,0.25,60.53,85.56,109.15,-3997.56,314.21,-164.79,0.12,0.24,0.06,628,637,0,0,0
2615803251,100493,29.86,0.25,61.01,85.54,109.64,-3997.56,314.21,-164.79,0.31,0.31,0,628,637,0,0,0
2615814217,100492,29.87,0.25,61.55,85.52,110.18,-3997.56,314.21,-164.79,0.24,0.37,-0.12,628,637,0,0,0
2615824225,100492,29.87,0.25,62.04,85.5,110.67,-3997.56,314.21,-164.79,0.18,0.37,-0.06,628,637,0,0,0
2615834228,100492,29.87,0.25,62.51,85.47,111.14,-3997.56,314.21,-164.79,0.12,0.31,0.06,628,637,0,0,0
2615844233,100492,29.87,0.25,62.97,85.45,111.6,-3997.56,314.21,-164.79,0.12,0.31,0.12,628,637,0,0,0
2615854235,100492,29.87,0.25,63.43,85.43,112.06,-3997.56,314.21,-164.79,0.31,0.31,0.12,628,637,0,0,0
2615865206,100492,29.87,0.25,63.91,85.4,112.55,-3997.56,314.21,-164.79,0.31,0.18,0,628,637,0,0,0
2615875214,100492,29.87,0.25,64.36,85.38,113,-3997.56,314.21,-164.79,0.12,0.24,0,628,637,0,0,0
2615885220,100492,29.87,0.25,64.81,85.36,113.45,-3997.56,314.21,-164.79,0.06,0.24,-0.06,628,637,0,0,0
2615895223,100492,29.87,0.25,65.24,85.34,113.88,-3997.56,314.21,-164.79,0.18,0.06,-0.31,628,637,0,0,0
2615905227,100492,29.87,0.25,64.83,85.35,113.46,-4006.35,309.08,-60.06,0.24,0,-0.31,628,637,0,0,0
2615916194,100491,29.86,0.33,64.34,85.37,112.96,-4006.35,309.08,-60.06,0.12,-0.12,-0.06,628,637,0,0,0
2615926204,100491,29.86,0.33,63.9,85.38,112.53,-4006.35,309.08,-60.06,0.31,0,0,628,637,0,0,0
2615936207,100491,29.86,0.33,63.44,85.4,112.07,-4006.35,309.08,-60.06,0.24,-0.12,0,628,637,0,0,0
2615946209,100491,29.86,0.33,62.98,85.42,111.61,-4006.35,309.08,-60.06,0.18,-0.12,-0.06,628,637,0,0,0
2615956211,100491,29.86,0.33,62.52,85.43,111.15,-4006.35,309.08,-60.06,0.12,-0.12,0,628,637,0,0,0
2615967183,100492,29.87,0.25,62,85.45,110.63,-4006.35,309.08,-60.06,0.12,-0.12,0.12,628,637,0,0,0
2615977191,100492,29.87,0.25,61.53,85.46,110.16,-4006.35,309.08,-60.06,0.12,-0.12,0.06,628,637,0,0,0
2615987195,100492,29.87,0.25,61.05,85.48,109.68,-4006.35,309.08,-60.06,0.06,-0.12,0.06,628,637,0,0,0
2615997201,100492,29.87,0.25,60.56,85.49,109.19,-4006.35,309.08,-60.06,0.06,-0.18,0.12,628,637,0,0,0
2616007203,100492,29.87,0.25,60.08,85.51,108.71,-4006.35,309.08,-60.06,0,-0.12,0.06,628,637,0,0,0
2616019606,100494,29.87,0.08,59.51,85.52,108.14,-4006.35,309.08,-60.06,-0.24,0.06,0,628,637,0,0,0
2616029614,100494,29.87,0.08,59.05,85.54,107.67,-4006.35,309.08,-60.06,-0.31,0.06,-0.06,628,637,0,0,0
2616039619,100494,29.87,0.08,58.56,85.55,107.17,-4006.35,309.08,-60.06,-0.37,-0.18,-0.06,628,637,0,0,0
2616049626,100494,29.87,0.08,58.14,85.56,106.75,-4006.35,309.08,-60.06,-0.55,0.49,0.06,628,637,0,0,0
2616059632,100494,29.87,0.08,57.75,85.57,106.35,-4006.35,309.08,-60.06,-1.16,0.79,0.12,628,637,0,0,0
2616070597,100492,29.87,0.25,57.28,85.58,105.87,-4006.35,309.08,-60.06,-1.1,0.49,0.12,628,637,0,0,0
2616080607,100492,29.87,0.25,56.82,85.59,105.39,-4006.35,309.08,-60.06,-1.04,0.18,0.12,628,637,0,0,0
2616090612,100492,29.87,0.25,56.35,85.6,104.92,-4006.35,309.08,-60.06,-0.55,0.18,0.12,628,637,0,0,0
2616100619,100492,29.87,0.25,55.91,85.61,104.48,-4006.35,309.08,-60.06,0.12,0.37,0.06,628,637,0,0,0
2616110623,100492,29.87,0.25,55.49,85.62,104.06,-4006.35,309.08,-60.06,0.31,0.55,-0.06,628,637,0,0,0
2616121587,100492,29.87,0.25,55.01,85.64,103.57,-4006.35,309.08,-60.06,-0.61,0.43,0.06,628,637,0,0,0
2616131597,100492,29.87,0.25,54.55,85.65,103.09,-4006.35,309.08,-60.06,-1.4,0.24,0,628,637,0,0,0
2616141604,100492,29.87,0.25,54.09,85.65,102.62,-4006.35,309.08,-60.06,-1.16,0.31,0.12,628,637,0,0,0
2616151611,100492,29.87,0.25,53.65,85.66,102.18,-4006.35,309.08,-60.06,0.06,0.49,0.24,628,637,0,0,0
2616161618,100492,29.87,0.25,53.21,85.67,101.75,-4006.35,309.08,-60.06,1.16,0.43,0.06,628,637,0,0,0
2616172577,100492,29.87,0.25,52.71,85.68,101.26,-4006.35,309.08,-60.06,0.98,0.31,0,628,637,0,0,0
2616182589,100492,29.87,0.25,52.24,85.69,100.79,-4006.35,309.08,-60.06,0.18,0.18,0,628,637,0,0,0
2616192598,100492,29.87,0.25,52.77,85.69,101.34,-4006.35,309.08,-60.06,-0.55,0.24,0.06,628,637,0,0,0
2616202604,100492,29.87,0.25,52.31,85.69,100.84,-4006.35,309.08,-60.06,-0.85,0.06,0.06,628,637,0,0,0
2616212611,100492,29.87,0.25,52.81,85.7,101.37,-4006.35,309.08,-60.06,-0.49,-0.06,-0.06,628,637,0,0,0
2616223564,100492,29.87,0.25,53.13,85.65,101.69,-3990.97,382.32,-120.85,0.18,0.06,-0.12,628,637,0,0,0
2616233570,100492,29.87,0.25,53.43,85.6,101.99,-3990.97,382.32,-120.85,0.73,0.12,-0.24,628,637,0,0,0
2616243576,100492,29.87,0.25,53.7,85.56,102.26,-3990.97,382.32,-120.85,0.85,-0.06,-0.18,628,637,0,0,0
2616253579,100492,29.87,0.25,53.95,85.51,102.51,-3990.97,382.32,-120.85,0.24,-0.18,-0.06,628,637,0,0,0
2616263588,100492,29.87,0.25,54.19,85.47,102.74,-3990.97,382.32,-120.85,-0.79,-0.12,0.18,628,637,0,0,0
2616274553,100491,29.87,0.33,54.44,85.42,102.98,-3990.97,382.32,-120.85,-1.16,-0.18,0.12,628,637,0,0,0
2616284564,100491,29.87,0.33,54.66,85.37,103.19,-3990.97,382.32,-120.85,-0.55,-0.24,0.12,628,637,0,0,0
2616294570,100491,29.87,0.33,54.88,85.32,103.42,-3990.97,382.32,-120.85,0.37,-0.24,0.06,628,637,0,0,0
2616304577,100491,29.87,0.33,55.12,85.28,103.66,-3990.97,382.32,-120.85,1.04,-0.12,-0.06,628,637,0,0,0
2616314581,100491,29.87,0.33,55.37,85.23,103.92,-3990.97,382.32,-120.85,1.1,0.06,-0.06,628,637,0,0,0
2616325538,100494,29.87,0.08,55.65,85.18,104.2,-3990.97,382.32,-120.85,0.49,0.12,-0.06,628,637,0,0,0
2616335547,100494,29.87,0.08,55.87,85.14,104.42,-3990.97,382.32,-120.85,-0.18,-0.12,-0.12,628,637,0,0,0
2616345552,100494,29.87,0.08,56.09,85.09,104.63,-3990.97,382.32,-120.85,-0.49,-0.06,0,628,637,0,0,0
2616355556,100494,29.87,0.08,56.34,85.04,104.88,-3990.97,382.32,-120.85,-0.06,0.24,0.06,628,637,0,0,0
2616365560,100494,29.87,0.08,56.59,85,105.13,-3990.97,382.32,-120.85,0.55,0.31,0.12,628,637,0,0,0
2616376529,100492,29.87,0.25,56.84,84.95,105.4,-3990.97,382.32,-120.85,0.98,0.18,-0.12,628,637,0,0,0
2616386538,100492,29.87,0.25,57.1,84.9,105.66,-3990.97,382.32,-120.85,0.73,0.43,-0.12,628,637,0,0,0
2616396540,100492,29.87,0.25,57.35,84.85,105.91,-3990.97,382.32,-120.85,0.12,0.43,-0.06,628,637,0,0,0
2616406543,100492,29.87,0.25,57.58,84.8,106.13,-3990.97,382.32,-120.85,-0.24,0.37,-0.06,628,637,0,0,0
2616416550,100492,29.87,0.25,57.81,84.76,106.35,-3990.97,382.32,-120.85,-0.67,0.43,0,628,637,0,0,0
2616427517,100491,29.87,0.33,58.04,84.7,106.59,-3990.97,382.32,-120.85,-0.37,0.43,0.06,628,637,0,0,0
2616437528,100491,29.87,0.33,58.25,84.65,106.79,-3990.97,382.32,-120.85,0.24,0.31,-0.06,628,637,0,0,0
2616447532,100491,29.87,0.33,58.46,84.6,107,-3990.97,382.32,-120.85,0.55,0.43,-0.12,628,637,0,0,0
2616457538,100491,29.87,0.33,58.64,84.55,107.19,-3990.97,382.32,-120.85,0.37,0.43,0.06,628,637,0,0,0
2616467546,100491,29.87,0.33,58.81,84.5,107.35,-3990.97,382.32,-120.85,-0.18,0.37,0.06,628,637,0,0,0
2616478505,100492,29.87,0.25,58.97,84.44,107.5,-3990.97,382.32,-120.85,-0.67,0.31,0,628,637,0,0,0
2616488515,100492,29.87,0.25,59.07,84.39,107.59,-3990.97,382.32,-120.85,-0.98,0.18,-0.12,628,637,0,0,0
2616498520,100492,29.87,0.25,59.01,84.43,107.51,-3990.97,382.32,-120.85,-0.61,0.31,0.06,628,637,0,0,0
2616508525,100492,29.87,0.25,59.1,84.38,107.62,-3990.97,382.32,-120.85,0.06,0.37,0.12,628,637,0,0,0
2616518531,100492,29.87,0.25,59.01,84.42,107.52,-3990.97,382.32,-120.85,0.49,0.18,0,628,637,0,0,0
2616529516,100491,29.87,0.33,59.08,84.37,107.6,-3990.97,382.32,-120.85,0.37,-0.06,0.06,628,637,0,0,0
2616539524,100491,29.87,0.33,58.76,84.39,107.27,-4040.77,347.9,-40.28,0.06,-0.12,0.24,628,637,0,0,0
2616549527,100491,29.87,0.33,58.44,84.42,106.95,-4040.77,347.9,-40.28,-0.37,-0.06,0.31,628,637,0,0,0
2616559527,100491,29.87,0.33,58.12,84.45,106.62,-4040.77,347.9,-40.28,-0.55,-0.12,0.06,628,637,0,0,0
2616569531,100491,29.87,0.33,57.79,84.48,106.29,-4040.77,347.9,-40.28,-0.43,-0.18,-0.06,628,637,0,0,0
2616580505,100494,29.87,0.08,57.42,84.51,105.92,-4040.77,347.9,-40.28,-0.18,-0.24,-0.06,628,637,0,0,0
2616590511,100494,29.87,0.08,57.07,84.54,105.56,-4040.77,347.9,-40.28,0.12,-0.37,-0.06,628,637,0,0,0
2616600514,100494,29.87,0.08,56.71,84.58,105.21,-4040.77,347.9,-40.28,0.37,-0.43,-0.12,628,637,0,0,0
2616610515,100494,29.87,0.08,56.35,84.61,104.85,-4040.77,347.9,-40.28,0.06,-0.31,0,628,637,0,0,0
2616620521,100494,29.87,0.08,55.99,84.63,104.49,-4040.77,347.9,-40.28,-0.37,-0.24,0.12,628,637,0,0,0
2616631492,100488,29.87,0.58,55.61,84.67,104.1,-4040.77,347.9,-40.28,-0.73,-0.12,0.12,628,637,0,0,0
2616641499,100488,29.87,0.58,55.27,84.69,103.75,-4040.77,347.9,-40.28,-0.49,-0.06,0,628,637,0,0,0
2616651507,100488,29.87,0.58,54.95,84.72,103.42,-4040.77,347.9,-40.28,-0.12,0.12,0,628,637,0,0,0
2616661512,100488,29.87,0.58,54.62,84.75,103.11,-4040.77,347.9,-40.28,0.37,0.18,-0.06,628,637,0,0,0
2616671518,100488,29.87,0.58,54.29,84.78,102.78,-4040.77,347.9,-40.28,0.49,0.12,0,628,637,0,0,0
2616682483,100486,29.87,0.75,53.92,84.81,102.4,-4040.77,347.9,-40.28,0.18,0.06,-0.12,628,637,0,0,0
2616692492,100486,29.87,0.75,53.59,84.84,102.08,-4040.77,347.9,-40.28,-0.12,0.24,-0.12,628,637,0,0,0
2616702494,100486,29.87,0.75,53.26,84.87,101.74,-4040.77,347.9,-40.28,-0.18,0.18,-0.18,628,637,0,0,0
2616712500,100486,29.87,0.75,52.92,84.9,101.4,-4040.77,347.9,-40.28,0.24,0.18,-0.24,628,637,0,0,0
2616722506,100486,29.87,0.75,52.59,84.93,101.08,-4040.77,347.9,-40.28,0.55,0.37,-0.24,628,637,0,0,0
2616733476,100487,29.87,0.66,52.24,84.96,100.74,-4040.77,347.9,-40.28,0.73,0.49,-0.12,628,637,0,0,0
2616743483,100487,29.87,0.66,51.91,84.98,100.42,-4040.77,347.9,-40.28,0.85,0.37,-0.18,628,637,0,0,0
2616753489,100487,29.87,0.66,51.58,85.01,100.09,-4040.77,347.9,-40.28,0.61,0.43,-0.06,628,637,0,0,0
2616763494,100487,29.87,0.66,51.25,85.03,99.76,-4040.77,347.9,-40.28,0.24,0.55,0.06,628,637,0,0,0
2616773500,100487,29.87,0.66,50.92,85.05,99.43,-4040.77,347.9,-40.28,0.18,0.61,0.18,628,637,0,0,0
2616784466,100488,29.87,0.58,50.54,85.07,99.06,-4040.77,347.9,-40.28,0.31,0.49,0.12,628,637,0,0,0
2616794477,100488,29.87,0.58,50.2,85.1,98.71,-4040.77,347.9,-40.28,0.31,0.49,0.06,628,637,0,0,0
2616804483,100488,29.87,0.58,49.83,85.12,98.35,-4040.77,347.9,-40.28,0.43,0.37,0.12,628,637,0,0,0
2616814483,100488,29.87,0.58,49.45,85.14,97.97,-4040.77,347.9,-40.28,0.18,0.24,0.06,628,637,0,0,0
2616824492,100488,29.87,0.58,49.07,85.16,97.59,-4040.77,347.9,-40.28,-0.06,0.24,0.06,628,637,0,0,0
2616835447,100491,29.87,0.33,48.66,85.18,97.17,-4040.77,347.9,-40.28,-0.55,0.31,0.12,628,637,0,0,0
2616845454,100491,29.87,0.33,48.11,85.2,96.61,-4040.77,347.9,-40.28,-1.04,-1.16,0.31,628,637,0,0,0
2616855460,100491,29.87,0.33,47.38,85.29,95.87,-4040.77,347.9,-40.28,-2.08,-6.23,-3.42,628,637,0,0,0
2616865466,100491,29.87,0.33,46.26,85.33,94.94,-24000,5742.19,10042.97,18.49,-6.23,-3.66,628,637,0,0,0
2616875471,100491,29.87,0.33,44.9,85.29,93.91,-24000,5742.19,10042.97,33.45,-7.75,2.93,628,637,0,0,0
2616886432,100487,29.87,0.66,42.5,85.2,91.94,-24000,5742.19,10042.97,40.28,-14.89,7.51,628,637,0,0,0
2616896441,100487,29.87,0.66,40.49,85.11,90.52,-24000,5742.19,10042.97,59.02,-13.85,8.18,628,637,0,0,0
2616906447,100487,29.87,0.66,39.82,85.03,90.75,-24000,5742.19,10042.97,91,-2.38,6.71,628,637,0,0,0
2616916449,100487,29.87,0.66,40.71,84.97,93.05,-24000,5742.19,10042.97,141.11,11.72,3.85,628,637,0,0,0
2616926455,100487,29.87,0.66,42.12,84.92,96.05,-24000,5742.19,10042.97,160.1,16.66,2.93,628,637,0,0,0
2616937421,100473,29.87,1.84,43.14,84.84,98.57,-24000,5742.19,10042.97,137.76,12.88,4.82,628,637,0,0,0
2616947430,100473,29.87,1.84,43.41,84.74,99.91,-24000,5742.19,10042.97,107.6,7.45,7.51,628,637,0,0,0
2616957437,100473,29.87,1.84,43.72,84.65,101.63,-24000,5742.19,10042.97,141.6,8.12,7.57,628,637,0,0,0
2616967441,100473,29.87,1.84,44.23,84.55,104,-24000,5742.19,10042.97,187.5,10.25,6.47,628,637,0,0,0
2616977447,100473,29.87,1.84,44.38,84.45,105.87,-24000,5742.19,10042.97,172.3,7.45,7.93,628,637,0,0,0
2616988404,100455,29.87,3.35,44,84.3,107.11,-24000,5742.19,10042.97,148.44,4.09,13.12,628,637,0,0,0
2616998410,100455,29.87,3.35,43.6,84.13,108.19,-24000,5742.19,10042.97,149.35,4.52,15.99,628,637,0,0,0
2617008417,100455,29.87,3.35,43.13,83.93,109.24,-24000,5742.19,10042.97,151.86,4.88,18.68,628,637,0,0,0
2617018421,100455,29.87,3.35,42.64,83.71,110.26,-24000,5742.19,10042.97,152.77,5.68,21.36,628,637,0,0,0
2617028428,100455,29.87,3.35,42.15,83.45,111.29,-24000,5742.19,10042.97,152.65,7.08,24.41,628,637,0,0,0
2617039393,100433,29.87,5.19,41.59,83.14,112.39,-24000,5742.19,10042.97,152.47,8.24,27.16,628,637,0,0,0
2617049399,100433,29.87,5.19,41.09,82.83,113.4,-24000,5742.19,10042.97,152.34,9.52,29.66,628,637,0,0,0
2617059404,100433,29.87,5.19,40.55,82.5,114.39,-24000,5742.19,10042.97,152.34,10.44,32.04,628,637,0,0,0
2617069409,100433,29.87,5.19,39.99,82.14,115.34,-24000,5742.19,10042.97,152.28,11.35,34.3,628,637,0,0,0
2617079412,100433,29.87,5.19,39.42,81.76,116.28,-24000,5742.19,10042.97,151.98,12.27,36.25,628,637,0,0,0
2617090379,100404,29.87,7.62,38.8,81.33,117.32,-24000,5742.19,10042.97,151.37,13.49,37.78,628,637,0,0,0
2617100384,100404,29.87,7.62,38.22,80.92,118.24,-24000,5742.19,10042.97,150.57,14.16,39.12,628,637,0,0,0
2617110394,100404,29.87,7.62,37.67,80.5,119.18,-24000,5742.19,10042.97,149.41,15.63,40.16,628,637,0,0,0
2617120395,100404,29.87,7.62,37.15,80.07,120.13,-24000,5742.19,10042.97,147.77,16.91,41.02,628,637,0,0,0
2617130402,100404,29.87,7.62,36.64,79.63,121.08,-24000,5742.19,10042.97,146.06,18.01,41.87,628,637,0,0,0
2617141368,100360,29.87,11.31,36.08,79.13,122.1,-24000,5742.19,10042.97,144.47,18.92,42.85,628,637,0,0,0
2617151376,100360,29.87,11.31,35.57,78.67,123.02,-24000,5742.19,10042.97,142.58,19.71,43.58,628,637,0,0,0
2617161384,100360,29.87,11.31,35.04,78.2,123.9,-24000,5742.19,10042.97,140.38,20.08,44.01,628,637,0,0,0
2617171387,100360,29.87,11.31,34.53,77.73,124.76,-24000,5742.19,10042.97,138.24,20.81,44.31,628,637,0,0,0
2617181394,100360,29.87,11.31,34.23,77.29,125.83,-24000,-3909.67,-314.94,135.86,21.55,44.37,628,637,0,0,0
2617192354,100307,29.87,15.76,33.9,76.81,126.97,-24000,-3909.67,-314.94,133.18,21.97,44.07,628,637,0,0,0
2617202359,100307,29.87,15.76,33.59,76.37,127.97,-24000,-3909.67,-314.94,130.25,22.4,43.64,628,637,0,0,0
2617212365,100307,29.87,15.76,33.26,75.94,128.92,-24000,-3909.67,-314.94,126.71,22.28,43.09,628,637,0,0,0
2617222371,100307,29.87,15.76,32.92,75.52,129.82,-24000,-3909.67,-314.94,122.56,21.85,42.42,628,637,0,0,0
2617232374,100307,29.87,15.76,32.55,75.12,130.64,-24000,-3909.67,-314.94,117.55,20.75,41.5,628,637,0,0,0
2617243339,100243,29.87,21.13,32.1,74.69,131.42,-24000,-3909.67,-314.94,111.27,19.23,40.71,628,637,0,0,0
2617253347,100243,29.87,21.13,31.65,74.32,132.04,-24000,-3909.67,-314.94,104.43,17.46,39.98,628,637,0,0,0
2617263356,100243,29.87,21.13,31.16,73.97,132.55,-24000,-3909.67,-314.94,97.72,15.44,39,628,637,0,0,0
2617273362,100243,29.87,21.13,30.63,73.65,132.95,-24000,-3909.67,-314.94,90.7,12.94,37.9,628,637,0,0,0
2617283366,100243,29.87,21.13,30.05,73.36,133.23,-24000,-3909.67,-314.94,82.95,10.13,36.99,628,637,0,0,0
2617294323,100157,29.86,28.35,29.32,73.08,133.3,-24000,-3909.67,-314.94,70.5,5.43,36.13,628,637,0,0,0
2617304334,100157,29.86,28.35,28.58,72.85,133.21,-24000,-3909.67,-314.94,60.85,1.77,35.22,628,637,0,0,0
2617314339,100157,29.86,28.35,27.79,72.67,132.96,-24000,-3909.67,-314.94,50.23,-2.32,33.81,628,637,0,0,0
2617324342,100157,29.86,28.35,26.94,72.52,132.55,-24000,-3909.67,-314.94,39.06,-6.53,32.41,628,637,0,0,0
2617334345,100157,29.86,28.35,26.04,72.41,131.96,-24000,-3909.67,-314.94,27.53,-10.93,30.58,628,637,0,0,0
2617345311,100054,29.86,37.01,24.98,72.34,131.12,-24000,-3909.67,-314.94,15.26,-15.44,28.69,628,637,0,0,0
2617355316,100054,29.86,37.01,23.95,72.31,130.18,-24000,-3909.67,-314.94,2.93,-20.02,26.43,628,637,0,0,0
2617365319,100054,29.86,37.01,22.87,72.33,129.06,-24000,-3909.67,-314.94,-9.22,-24.41,23.8,628,637,0,0,0
2617375327,100054,29.86,37.01,21.74,72.39,127.78,-24000,-3909.67,-314.94,-21.12,-28.44,21.18,628,637,0,0,0
2617385332,100054,29.86,37.01,20.58,72.48,126.36,-24000,-3909.67,-314.94,-31.07,-31.98,17.94,628,637,0,0,0
2617396299,99947,29.86,46.02,19.28,72.63,124.7,-24000,-3909.67,-314.94,-38.39,-34.85,14.53,628,637,0,0,0
2617406308,99947,29.86,46.02,18.07,72.79,123.11,-24000,-3909.67,-314.94,-44.98,-37.17,10.93,628,637,0,0,0
2617416313,99947,29.86,46.02,16.88,72.99,121.46,-24000,-3909.67,-314.94,-50.23,-38.45,7.02,628,637,0,0,0
2617426319,99947,29.86,46.02,15.72,73.21,119.83,-24000,-3909.67,-314.94,-53.41,-38.51,2.93,628,637,0,0,0
2617436328,99947,29.86,46.02,14.63,73.45,118.23,-24000,-3909.67,-314.94,-55.36,-37.66,-1.1,628,637,0,0,0
2617447286,99836,29.86,55.36,13.51,73.74,116.54,-24000,-3909.67,-314.94,-56.58,-36.19,-5.13,628,637,0,0,0
2617457297,99836,29.86,55.36,12.59,74.02,115.1,-24000,-3909.67,-314.94,-56.76,-33.75,-8.85,628,637,0,0,0
2617467306,99836,29.86,55.36,11.81,74.31,113.78,-24000,-3909.67,-314.94,-56.7,-30.33,-12.88,628,637,0,0,0
2617477312,99836,29.86,55.36,11.18,74.62,112.61,-24000,-3909.67,-314.94,-56.76,-26.31,-16.48,628,637,0,0,0
2617487318,99836,29.86,55.36,10.73,74.93,111.62,-24000,-3909.67,-314.94,-55.54,-21.67,-19.23,628,637,0,0,0
2617498271,99738,29.85,63.62,10.54,75.27,110.86,-24000,-7692.63,-4550.54,-53.1,-16.17,-21.55,628,637,0,0,0
2617508278,99738,29.85,63.62,10.6,75.57,110.43,-24000,-7692.63,-4550.54,-50.17,-10.01,-23.13,628,637,0,0,0
2617518281,99738,29.85,63.62,10.91,75.86,110.27,-24000,-7692.63,-4550.54,-47.18,-3.78,-23.99,628,637,0,0,0
2617528288,99738,29.85,63.62,11.47,76.13,110.37,-24000,-7692.63,-4550.54,-44.62,2.5,-24.05,628,637,0,0,0
2617538291,99738,29.85,63.62,12.28,76.37,110.76,-24000,-7692.63,-4550.54,-41.56,8.79,-23.93,628,637,0,0,0
2617549286,99649,29.84,71.13,13.48,76.61,111.49,-24000,-7692.63,-4550.54,-39.49,15.01,-23.62,628,637,0,0,0
2617559297,99649,29.84,71.13,14.8,76.79,112.4,-24000,-7692.63,-4550.54,-39.61,20.63,-22.58,628,637,0,0,0
2617569301,99649,29.84,71.13,16.33,76.93,113.48,-24000,-7692.63,-4550.54,-41.44,25.7,-20.87,628,637,0,0,0
2617579307,99649,29.84,71.13,18.02,77.03,114.7,-24000,-7692.63,-4550.54,-43.46,29.91,-19.17,628,637,0,0,0
2617589313,99649,29.84,71.13,19.87,77.09,116.06,-24000,-7692.63,-4550.54,-45.23,34.06,-17.52,628,637,0,0,0
2617600270,99575,29.83,77.38,22,77.09,117.62,-24000,-7692.63,-4550.54,-48.22,38.21,-13.98,628,637,0,0,0
2617610279,99575,29.83,77.38,23.94,77.05,119,-24000,-7692.63,-4550.54,-50.48,39.43,-11.29,628,637,0,0,0
2617620283,99575,29.83,77.38,25.8,76.97,120.3,-24000,-7692.63,-4550.54,-52.86,39.61,-8.61,628,637,0,0,0
2617630289,99575,29.83,77.38,27.54,76.87,121.46,-24000,-7692.63,-4550.54,-54.14,38.33,-5.92,628,637,0,0,0
2617640297,99575,29.83,77.38,29.1,76.75,122.44,-24000,-7692.63,-4550.54,-54.75,35.64,-3.6,628,637,0,0,0
2617651256,99492,29.83,84.38,30.56,76.62,123.28,-24000,-7692.63,-4550.54,-53.89,31.68,-1.22,628,637,0,0,0
2617661263,99492,29.83,84.38,31.66,76.5,123.84,-24000,-7692.63,-4550.54,-51.51,27.28,1.34,628,637,0,0,0
2617671267,99492,29.83,84.38,32.51,76.39,124.18,-24000,-7692.63,-4550.54,-49.56,22.46,3.78,628,637,0,0,0
2617681273,99492,29.83,84.38,33.11,76.29,124.3,-24000,-7692.63,-4550.54,-47.3,16.78,5.86,628,637,0,0,0
2617691276,99492,29.83,84.38,33.44,76.21,124.19,-24000,-7692.63,-4550.54,-44.56,10.44,7.45,628,637,0,0,0
2617702247,99382,29.82,93.68,33.53,76.15,123.82,-24000,-7692.63,-4550.54,-41.81,3.91,8.79,628,637,0,0,0
2617712255,99382,29.82,93.68,33.38,76.13,123.3,-24000,-7692.63,-4550.54,-38.15,-2.08,9.7,628,637,0,0,0
2617722259,99382,29.82,93.68,33.01,76.13,122.6,-24000,-7692.63,-4550.54,-35.03,-8.12,10.56,628,637,0,0,0
2617732262,99382,29.82,93.68,32.42,76.15,121.7,-24000,-7692.63,-4550.54,-33.87,-13.61,11.23,628,637,0,0,0
2617742268,99382,29.82,93.68,31.67,76.19,120.63,-24000,-7692.63,-4550.54,-34.24,-18.19,11.47,628,637,0,0,0
2617753235,99261,29.82,103.92,30.71,76.25,119.33,-24000,-7692.63,-4550.54,-34.55,-21.48,11.41,628,637,0,0,0
2617763242,99261,29.82,103.92,29.76,76.31,118.07,-24000,-7692.63,-4550.54,-34.61,-23.62,10.8,628,637,0,0,0
2617773252,99261,29.82,103.92,28.77,76.38,116.75,-24000,-7692.63,-4550.54,-36.93,-24.96,9.77,628,637,0,0,0
2617783257,99261,29.82,103.92,27.78,76.47,115.4,-24000,-7692.63,-4550.54,-40.34,-25.27,8.54,628,637,0,0,0
2617793265,99261,29.82,103.92,26.87,76.55,114.07,-24000,-7692.63,-4550.54,-44.31,-23.8,7.08,628,637,0,0,0
2617804224,99143,29.81,113.91,26.01,76.64,112.72,-24000,-7692.63,-4550.54,-47.73,-21.06,5.07,628,637,0,0,0
2617814232,99143,29.81,113.91,25.39,76.73,111.61,-24000,-7553.47,-3846.68,-51.15,-17.27,2.99,628,637,0,0,0
2617824237,99143,29.81,113.91,24.97,76.81,110.66,-24000,-7553.47,-3846.68,-55.18,-12.82,1.16,628,637,0,0,0
2617834240,99143,29.81,113.91,24.81,76.89,109.92,-24000,-7553.47,-3846.68,-59.14,-7.02,-0.67,628,637,0,0,0
2617844250,99143,29.81,113.91,24.95,76.96,109.45,-24000,-7553.47,-3846.68,-61.52,-0.06,-2.01,628,637,0,0,0
2617855208,99016,29.81,124.68,25.42,77.03,109.23,-24000,-7553.47,-3846.68,-62.44,6.35,-3.23,628,637,0,0,0
2617865243,99016,29.81,124.68,26.2,77.08,109.37,-24000,-7553.47,-3846.68,-62.81,13.92,-5.19,628,637,1,0,0
2617875564,99016,29.81,124.68,27.15,77.13,109.68,-24000,-7553.47,-3846.68,-62.32,17.52,-6.23,628,637,1,0,0
2617885878,99016,29.81,124.68,28.22,77.18,110.12,-24000,-7553.47,-3846.68,-60.91,20.08,-6.65,628,637,1,0,0
2617896238,99016,29.81,124.68,29.35,77.21,110.65,-24000,-7553.47,-3846.68,-57.37,21.36,-6.59,628,637,1,0,0
2617906577,98874,29.8,136.73,30.44,77.25,111.19,-24000,-7553.47,-3846.68,-52.43,20.51,-5.98,628,637,1,0,0
2617916887,98874,29.8,136.73,31.43,77.28,111.71,-24000,-7553.47,-3846.68,-44.68,18.37,-5.37,628,637,1,0,0
2617927203,98874,29.8,136.73,32.33,77.31,112.28,-24000,-7553.47,-3846.68,-32.47,16.66,-4.39,628,637,1,0,0
2617937527,98874,29.8,136.73,33.05,77.33,112.79,-24000,-7553.47,-3846.68,-18.92,12.88,-2.69,628,637,1,0,0
2617947848,98874,29.8,136.73,33.49,77.36,113.19,-24000,-7553.47,-3846.68,-3.48,7.02,-0.61,628,637,1,0,0
2617958157,98716,29.79,150.15,33.66,77.39,113.52,-24000,-7553.47,-3846.68,15.44,1.4,1.16,628,637,1,0,0
2617968479,98716,29.79,150.15,33.64,77.42,113.88,-24000,-7553.47,-3846.68,37.41,-2.5,2.56,628,637,1,0,0
2617978820,98716,29.79,150.15,33.47,77.46,114.36,-24000,-7553.47,-3846.68,62.44,-5.49,3.72,628,637,1,0,0
2617989168,98716,29.79,150.15,33.14,77.5,114.93,-24000,-7553.47,-3846.68,89.48,-9.16,4.82,628,637,1,0,0
2617999496,98716,29.79,150.15,32.69,77.55,115.68,-24000,-7553.47,-3846.68,117.74,-11.29,6.04,628,637,1,0,0
2618009841,98541,29.79,165.04,32.22,77.58,116.72,-24000,-7553.47,-3846.68,148.13,-11.35,6.84,628,637,1,0,0
2618020642,98541,29.79,165.04,31.83,77.61,118.37,-24000,-7553.47,-3846.68,193.18,-8.85,7.08,628,637,1,0,0
2618030964,98541,29.79,165.04,31.47,77.64,120.23,-24000,-7553.47,-3846.68,219.36,-8.85,6.53,628,637,1,0,0
2618041304,98541,29.79,165.04,31.27,77.68,122.52,-24000,-7553.47,-3846.68,247.31,-5.92,5.07,628,637,1,0,0
2618051666,98541,29.79,165.04,31.36,77.7,125.41,-24000,-7553.47,-3846.68,277.28,-0.31,2.32,628,637,1,0,0
2618061975,98362,29.79,180.29,31.7,77.73,128.86,-24000,-7553.47,-3846.68,311.1,3.48,-1.16,628,637,1,0,0
2618072334,98362,29.79,180.29,32.28,77.77,133,-24000,-7553.47,-3846.68,353.82,7.26,-4.88,628,637,1,0,0
2618082666,98362,29.79,180.29,33.13,77.79,137.9,-24000,-7553.47,-3846.68,405.88,11.05,-8.79,628,637,1,0,0
2618093015,98362,29.79,180.29,34.14,77.8,143.51,-24000,-7553.47,-3846.68,459.11,12.7,-11.9,628,637,1,0,0
2618103325,98362,29.79,180.29,35.2,77.81,149.64,-24000,-7553.47,-3846.68,509.09,12.51,-13.31,628,637,1,0,0
2618113657,98141,29.78,199.15,36.21,77.79,156.24,-24000,-7553.47,-3846.68,559.57,11.6,-13,628,637,1,0,0
2618123972,98141,29.78,199.15,37.08,77.76,163.2,-24000,-7553.47,-3846.68,609.86,9.64,-10.99,628,637,1,0,0
2618134325,98141,29.78,199.15,37.68,77.72,170.4,-24000,-2931.88,-2153.32,659.36,9.77,-7.45,628,637,1,0,0
2618144632,98141,29.78,199.15,38.02,77.66,177.82,-24000,-2931.88,-2153.32,708.25,10.5,-3.11,628,637,1,0,0
2618154957,98141,29.78,199.15,38.09,77.59,-174.55,-24000,-2931.88,-2153.32,755.31,10.01,1.34,628,637,1,0,0
2618165304,97856,29.78,223.53,37.9,77.5,-166.7,-24000,-2931.88,-2153.32,800.96,12.7,5.25,628,637,1,0,0
2618175636,97856,29.78,223.53,37.47,77.41,-158.68,-24000,-2931.88,-2153.32,843.51,15.93,8.06,628,637,1,0,0
2618185986,97856,29.78,223.53,36.85,77.31,-150.43,-24000,-2931.88,-2153.32,883.18,18.31,9.34,628,637,1,0,0
2618196312,97856,29.78,223.53,36.1,77.2,-141.73,-24000,-2931.88,-2153.32,942.99,22.77,7.75,628,637,1,0,0
2618206667,97856,29.78,223.53,35.34,77.11,-132.65,-24000,-2931.88,-2153.32,980.1,22.52,5.07,628,637,1,0,0
2618216997,97536,29.77,250.96,34.6,77.05,-123.23,-24000,-2931.88,-2153.32,1013.73,20.51,2.75,628,637,1,0,0
2618227358,97536,29.77,250.96,33.89,77.03,-113.46,-24000,-2931.88,-2153.32,1044.37,17.52,1.4,628,637,1,0,0
2618237715,97536,29.77,250.96,33.19,77.06,-103.4,-24000,-2931.88,-2153.32,1072.94,14.53,1.16,628,637,1,0,0
2618248034,97536,29.77,250.96,32.48,77.11,-93.11,-24000,-2931.88,-2153.32,1100.65,13.18,2.01,628,637,1,0,0
2618258354,97536,29.77,250.96,31.92,77.2,-82.44,-24000,-2931.88,-2153.32,1123.47,10.01,4.27,628,637,1,0,0
2618268703,97208,29.77,279.16,31.55,77.33,-71.35,-24000,-2931.88,-2153.32,1144.9,7.51,7.2,628,637,1,0,0
2618279012,97208,29.77,279.16,31.27,77.49,-59.99,-24000,-2931.88,-2153.32,1165.71,7.93,9.16,628,637,1,0,0
2618289327,97208,29.77,279.16,31.01,77.67,-48.44,-24000,-2931.88,-2153.32,1183.17,10.99,9.7,628,637,1,0,0
2618299667,97208,29.77,279.16,30.77,77.86,-36.66,-24000,-2931.88,-2153.32,1200.32,13.43,8.3,628,637,1,0,0
2618309991,97208,29.77,279.16,30.55,78.06,-24.71,-24000,-2931.88,-2153.32,1215.58,15.01,6.1,628,637,1,0,0
2618320305,96858,29.76,309.33,30.4,78.28,-12.56,-24000,-2931.88,-2153.32,1231.26,16.6,4.15,628,637,1,0,0
2618330632,96858,29.76,309.33,30.34,78.5,-0.12,-24000,-2931.88,-2153.32,1249.27,17.33,2.38,628,637,1,0,0
2618340984,96858,29.76,309.33,30.42,78.68,12.67,-24000,-2931.88,-2153.32,1266.78,14.16,1.4,628,637,1,0,0
2618351344,96858,29.76,309.33,30.64,78.83,25.76,-24000,-2931.88,-2153.32,1281.25,11.29,1.71,628,637,1,0,0
2618361691,96858,29.76,309.33,31.02,78.92,39.17,-24000,-2931.88,-2153.32,1301.64,7.14,4.7,628,637,1,0,0
2618372033,96544,29.76,336.48,31.57,78.98,52.91,-24000,-2931.88,-2153.32,1316.83,8.61,6.71,628,637,1,0,0
2618382379,96544,29.76,336.48,32.35,79.03,67.01,-24000,-2931.88,-2153.32,1331.73,12.02,8.18,628,637,1,0,0
2618392693,96544,29.76,336.48,33.41,79.05,81.46,-24000,-2931.88,-2153.32,1343.87,17.7,8.67,628,637,1,0,0
2618403038,96544,29.76,336.48,34.55,79.01,96.09,-24000,-2931.88,-2153.32,1350.89,20.02,9.46,628,637,1,0,0
2618413394,96544,29.76,336.48,35.49,78.92,110.55,-24000,-2931.88,-2153.32,1353.7,18.62,10.13,628,637,1,0,0
2618423700,96221,29.75,364.48,36.09,78.8,124.63,-24000,-2931.88,-2153.32,1355.71,15.56,10.62,628,637,1,0,0
2618434053,96221,29.75,364.48,36.44,78.63,138.58,-24000,-2931.88,-2153.32,1361.21,17.15,13.73,628,637,1,0,0
2618444384,96221,29.75,364.48,36.51,78.41,152.28,-24000,-2931.88,-2153.32,1368.65,19.53,16.24,628,637,1,0,0
2618454743,96221,29.75,364.48,36.04,78.2,165.54,11606.69,-4801.03,-2904.79,1373.23,14.95,17.46,628,637,1,0,0
2618465049,96221,29.75,364.48,35.22,78.01,178.44,11606.69,-4801.03,-2904.79,1378.78,15.08,20.81,628,637,1,0,0
2618475405,95903,29.75,392.12,34.06,77.84,-168.89,11606.69,-4801.03,-2904.79,1382.39,17.58,24.23,628,637,1,0,0
2618485711,95903,29.75,392.12,32.64,77.7,-156.47,11606.69,-4801.03,-2904.79,1388.55,21.06,26.25,628,637,1,0,0
2618496057,95903,29.75,392.12,31.09,77.65,-144.08,11606.69,-4801.03,-2904.79,1393.31,20.02,27.95,628,637,1,0,0
2618506378,95903,29.75,392.12,29.53,77.67,-131.66,11606.69,-4801.03,-2904.79,1399.35,19.78,28.32,628,637,1,0,0
2618516700,95903,29.75,392.12,27.94,77.76,-119.26,11606.69,-4801.03,-2904.79,1401.25,21.91,28.81,628,637,1,0,0
2618527011,95648,29.75,414.34,26.3,77.95,-106.87,11606.69,-4801.03,-2904.79,1405.64,24.05,32.53,628,637,1,0,0
2618537330,95648,29.75,414.34,24.9,78.24,-94.21,11606.69,-4801.03,-2904.79,1408.39,22.95,35.4,628,637,1,0,0
2618547645,95648,29.75,414.34,23.96,78.61,-81.1,11606.69,-4801.03,-2904.79,1406.86,19.96,37.9,628,637,1,0,0
2618557978,95648,29.75,414.34,23.46,79.04,-67.52,11606.69,-4801.03,-2904.79,1409.55,20.51,40.28,628,637,1,0,0
2618568309,95648,29.75,414.34,23.49,79.52,-53.36,11606.69,-4801.03,-2904.79,1413.82,22.34,43.03,628,637,1,0,0
2618578645,95545,29.74,423.32,24.26,80,-38.43,11606.69,-4801.03,-2904.79,1415.65,22.4,45.47,628,637,1,0,0
2618588970,95545,29.74,423.32,25.85,80.44,-22.67,11606.69,-4801.03,-2904.79,1417.91,22.46,47.3,628,637,1,0,0
2618599313,95545,29.74,423.32,28.23,80.78,-6.04,11606.69,-4801.03,-2904.79,1422.67,22.28,48.58,628,637,1,0,0
2618609673,95545,29.74,423.32,31.31,80.96,11.32,11606.69,-4801.03,-2904.79,1423.16,19.47,50.66,628,637,1,0,0
2618620021,95545,29.74,423.32,34.75,80.94,29,11606.69,-4801.03,-2904.79,1421.69,17.4,53.96,628,637,1,0,0
2618630327,95452,29.74,431.44,38.15,80.74,46.57,11606.69,-4801.03,-2904.79,1422.79,17.88,57.31,628,637,1,0,0
2618640682,95452,29.74,431.44,41.1,80.36,63.77,11606.69,-4801.03,-2904.79,1425.29,18.92,59.69,628,637,1,0,0
2618650991,95452,29.74,431.44,43.28,79.85,80.14,11606.69,-4801.03,-2904.79,1427.12,20.08,60.97,628,637,1,0,0
2618661319,95452,29.74,431.44,44.56,79.24,95.64,11606.69,-4801.03,-2904.79,1428.1,20.63,61.04,628,637,1,0,0
2618671630,95452,29.74,431.44,44.99,78.62,110.29,11606.69,-4801.03,-2904.79,1429.63,21.24,59.57,628,637,1,0,0
2618681956,95301,29.74,444.64,44.72,78,124.29,11606.69,-4801.03,-2904.79,1431.88,21.79,57.43,628,637,1,0,0
2618692274,95301,29.74,444.64,43.73,77.45,137.55,11606.69,-4801.03,-2904.79,1430.54,18.55,56.27,628,637,1,0,0
2618703203,95301,29.74,444.64,41.97,77,150.92,11606.69,-4801.03,-2904.79,1428.41,11.54,55.91,628,637,1,0,0
2618713542,95301,29.74,444.64,39.94,76.66,163.15,11606.69,-4801.03,-2904.79,1425.48,11.11,57.13,628,637,1,0,0
2618723883,95301,29.74,444.64,37.55,76.44,175,11606.69,-4801.03,-2904.79,1421.2,8.91,60.36,628,637,1,0,0
2618734197,95103,29.73,461.98,34.94,76.37,-173.45,11606.69,-4801.03,-2904.79,1416.26,7.02,63.42,628,637,1,0,0
2618746080,95103,29.73,461.98,31.84,76.46,-160.25,11606.69,-4801.03,-2904.79,1411.5,7.39,64.82,628,637,1,0,0
2618756423,95103,29.73,461.98,29.24,76.6,-148.69,11606.69,-4801.03,-2904.79,1411.8,10.68,64.03,628,637,1,0,0
2618766746,95103,29.73,461.98,26.77,76.83,-136.98,11606.69,-4801.03,-2904.79,1417.11,15.81,61.1,628,637,1,0,0
2618777055,95103,29.73,461.98,24.57,77.15,-125.01,23999.27,-6277.59,3609.38,1419.25,17.09,58.11,628,637,1,0,0
2618787383,94901,29.72,479.69,22.71,77.55,-112.65,23999.27,-6277.59,3609.38,1421.14,17.52,55.42,628,637,1,0,0
2618797703,94901,29.72,479.69,21.31,78,-99.86,23999.27,-6277.59,3609.38,1421.94,16.85,52.37,628,637,1,0,0
2618808019,94901,29.72,479.69,20.47,78.5,-86.53,23999.27,-6277.59,3609.38,1419.68,15.08,51.94,628,637,1,0,0
2618818358,94901,29.72,479.69,20.38,79.03,-72.47,23999.27,-6277.59,3609.38,1414.92,11.84,53.04,628,637,1,0,0
2618828673,94901,29.72,479.69,21.28,79.56,-57.55,23999.27,-6277.59,3609.38,1406.19,7.2,55.79,628,637,1,0,0
2618839028,94740,29.72,493.84,23,80.05,-41.81,23999.27,-6277.59,3609.38,1400.63,8.61,58.35,628,637,1,0,0
2618849394,94740,29.72,493.84,25.4,80.5,-25.4,23999.27,-6277.59,3609.38,1397.4,14.28,59.63,628,637,1,0,0
2618859735,94740,29.72,493.84,28.5,80.84,-8.34,23999.27,-6277.59,3609.38,1393.8,17.82,60,628,637,1,0,0
2618870081,94740,29.72,493.84,32.11,81.03,9.19,23999.27,-6277.59,3609.38,1389.4,20.08,59.14,628,637,1,0,0
2618880441,94740,29.72,493.84,35.89,81.06,26.86,23999.27,-6277.59,3609.38,1385.19,22.95,56.88,628,637,1,0,0
2618890749,94547,29.72,510.82,39.5,80.95,44.26,23999.27,-6277.59,3609.38,1383.54,25.51,54.2,628,637,1,0,0
2618901055,94547,29.72,510.82,42.52,80.68,61.04,23999.27,-6277.59,3609.38,1381.77,23.62,52,628,637,1,0,0
2618911400,94547,29.72,510.82,44.58,80.25,76.84,23999.27,-6277.59,3609.38,1375.85,18.13,51.64,628,637,1,0,0
2618921751,94547,29.72,510.82,45.72,79.73,91.64,23999.27,-6277.59,3609.38,1367.43,15.08,53.77,628,637,1,0,0
2618932061,94547,29.72,510.82,46.07,79.13,105.5,23999.27,-6277.59,3609.38,1358.95,15.32,57.37,628,637,1,0,0
2618942360,94375,29.71,525.97,45.64,78.51,118.51,23999.27,-6277.59,3609.38,1350.89,15.38,60.91,628,637,1,0,0
2618952669,94375,29.71,525.97,44.6,77.89,130.84,23999.27,-6277.59,3609.38,1343.2,16.91,63.29,628,637,1,0,0
2618962997,94375,29.71,525.97,43.1,77.3,142.71,23999.27,-6277.59,3609.38,1337.77,19.9,63.9,628,637,1,0,0
2618973339,94375,29.71,525.97,41.26,76.78,154.2,23999.27,-6277.59,3609.38,1331.42,21.73,63.11,628,637,1,0,0
2618983642,94375,29.71,525.97,39.09,76.39,165.26,23999.27,-6277.59,3609.38,1323.97,18.98,61.89,628,637,1,0,0
2618993948,94291,29.7,533.38,36.81,76.1,176.18,23999.27,-6277.59,3609.38,1321.41,18.86,59.51,628,637,1,0,0
2619008622,94291,29.7,533.38,33.45,75.96,-168.26,23999.27,-6277.59,3609.38,1320.86,17.4,56.76,628,637,1,0,0
2619018977,94291,29.7,533.38,31.12,75.95,-157.37,23999.27,-6277.59,3609.38,1316.96,13.06,57.31,628,637,1,0,0
2619029302,94291,29.7,533.38,28.86,76.16,-146.51,23999.27,-6277.59,3609.38,1310.42,7.32,59.57,628,637,1,0,0
2619039647,94291,29.7,533.38,26.65,76.48,-135.6,23999.27,-6277.59,3609.38,1306.27,8,62.13,628,637,1,0,0
2619049985,94213,29.69,540.26,24.63,76.91,-124.55,23999.27,-6277.59,3609.38,1303.53,9.03,63.48,628,637,1,0,0
2619060293,94213,29.69,540.26,22.99,77.41,-113.2,23999.27,-6277.59,3609.38,1299.5,8.12,63.35,628,637,1,0,0
2619070622,94213,29.69,540.26,21.7,77.97,-101.52,23999.27,-6277.59,3609.38,1297.12,10.56,61.83,628,637,1,0,0
2619080981,94213,29.69,540.26,20.89,78.54,-89.34,23999.27,-6277.59,3609.38,1295.04,11.66,58.96,628,637,1,0,0
2619091305,94213,29.69,540.26,20.66,79.1,-76.65,20630.13,-5247.8,5633.79,1293.46,12.08,55.48,628,637,1,0,0
2619101650,94090,29.69,551.13,21.01,79.63,-63.37,20630.13,-5247.8,5633.79,1291.69,12.7,52.73,628,637,1,0,0
2619111970,94090,29.69,551.13,22.16,80.11,-49.38,20630.13,-5247.8,5633.79,1286.19,10.01,52,628,637,1,0,0
2619122304,94090,29.69,551.13,24.16,80.5,-34.58,20630.13,-5247.8,5633.79,1278.56,6.77,52.61,628,637,1,0,0
2619132629,94090,29.69,551.13,26.9,80.78,-19.14,20630.13,-5247.8,5633.79,1271,4.88,53.89,628,637,1,0,0
2619142984,94090,29.69,551.13,30.11,80.92,-3.27,20630.13,-5247.8,5633.79,1263.31,4.94,54.69,628,637,1,0,0
2619153337,93962,29.69,562.45,33.51,80.92,12.73,20630.13,-5247.8,5633.79,1255.49,5.92,55.36,628,637,1,0,0
2619163672,93962,29.69,562.45,36.8,80.77,28.43,20630.13,-5247.8,5633.79,1240.36,6.41,55.73,628,637,1,0,0
2619174019,93962,29.69,562.45,39.62,80.49,43.57,20630.13,-5247.8,5633.79,1231.32,6.1,54.57,628,637,1,0,0
2619184363,93962,29.69,562.45,41.85,80.12,58.03,20630.13,-5247.8,5633.79,1223.02,7.63,52.49,628,637,1,0,0
2619194675,93962,29.69,562.45,43.48,79.69,71.75,20630.13,-5247.8,5633.79,1213.44,9.16,50.96,628,637,1,0,0
2619204989,93824,29.69,574.67,44.46,79.22,84.71,20630.13,-5247.8,5633.79,1203.43,8.79,49.62,628,637,1,0,0
2619215341,93824,29.69,574.67,44.89,78.73,97.1,20630.13,-5247.8,5633.79,1195.01,9.7,48.22,628,637,1,0,0
2619225654,93824,29.69,574.67,44.82,78.24,108.83,20630.13,-5247.8,5633.79,1183.65,9.89,47.61,628,637,1,0,0
2619235967,93824,29.69,574.67,44.21,77.78,119.91,20630.13,-5247.8,5633.79,1171.69,7.39,47.12,628,637,1,0,0
2619246303,93824,29.69,574.67,43.2,77.36,130.51,20630.13,-5247.8,5633.79,1160.34,6.41,47.18,628,637,1,0,0
2619256634,93677,29.69,587.7,41.85,76.98,140.63,20630.13,-5247.8,5633.79,1145.39,5.55,48.1,628,637,1,0,0
2619266974,93677,29.69,587.7,40.23,76.65,150.33,20630.13,-5247.8,5633.79,1128.78,5.55,49.13,628,637,1,0,0
2619277291,93677,29.69,587.7,38.42,76.39,159.67,20630.13,-5247.8,5633.79,1112.98,5.92,50.11,628,637,1,0,0
2619287602,93677,29.69,587.7,36.49,76.18,168.73,20630.13,-5247.8,5633.79,1097.66,7.14,50.72,628,637,1,0,0
2619297939,93677,29.69,587.7,34.48,76.04,177.61,20630.13,-5247.8,5633.79,1082.58,8.42,50.29,628,637,1,0,0
2619308298,93535,29.68,600.3,32.5,75.97,-173.62,20630.13,-5247.8,5633.79,1067.99,8.36,48.58,628,637,1,0,0
2619318660,93535,29.68,600.3,30.61,75.98,-164.88,20630.13,-5247.8,5633.79,1054.2,7.51,46.14,628,637,1,0,0
2619328992,93535,29.68,600.3,28.9,76.07,-156.2,20630.13,-5247.8,5633.79,1034.91,5.37,43.03,628,637,1,0,0
2619339351,93535,29.68,600.3,27.29,76.22,-147.52,20630.13,-5247.8,5633.79,1022.28,4.88,42.18,628,637,1,0,0
2619349680,93535,29.68,600.3,25.85,76.45,-138.82,20630.13,-5247.8,5633.79,1008.85,2.69,41.69,628,637,1,0,0
2619359987,93381,29.68,613.99,24.59,76.73,-130.11,20630.13,-5247.8,5633.79,995.91,1.65,41.56,628,637,1,0,0
2619370325,93381,29.68,613.99,23.49,77.06,-121.35,20630.13,-5247.8,5633.79,982.79,1.65,42.18,628,637,1,0,0
2619380683,93381,29.68,613.99,22.65,77.44,-112.43,20630.13,-5247.8,5633.79,970.34,-0.12,43.33,628,637,1,0,0
2619391018,93381,29.68,613.99,22.03,77.84,-103.43,20630.13,-5247.8,5633.79,960.33,0.98,43.33,628,637,1,0,0
2619401376,93381,29.68,613.99,21.66,78.25,-94.26,20630.13,-5247.8,5633.79,949.16,2.01,42.11,628,637,1,0,0
2619411711,93235,29.68,626.98,21.64,78.65,-84.88,15087.16,-4194.58,1870.61,938.29,0.92,40.59,628,637,1,0,0
2619422067,93235,29.68,626.98,21.88,79.02,-75.32,15087.16,-4194.58,1870.61,929.32,2.38,38.94,628,637,1,0,0
2619432379,93235,29.68,626.98,22.43,79.37,-65.59,15087.16,-4194.58,1870.61,918.82,2.08,36.93,628,637,1,0,0
2619442723,93235,29.68,626.98,23.34,79.67,-55.59,15087.16,-4194.58,1870.61,906.74,0.67,35.4,628,637,1,0,0
2619453035,93235,29.68,626.98,24.53,79.92,-45.44,15087.16,-4194.58,1870.61,897.46,-0.12,33.87,628,637,1,0,0
2619463372,93084,29.67,640.43,25.97,80.11,-35.08,15087.16,-4194.58,1870.61,890.26,-0.85,32.9,628,637,1,0,0
2619473686,93084,29.67,640.43,27.61,80.25,-24.61,15087.16,-4194.58,1870.61,882.75,-1.83,32.47,628,637,1,0,0
2619484005,93084,29.67,640.43,29.42,80.32,-14.08,15087.16,-4194.58,1870.61,872.01,-2.2,32.65,628,637,1,0,0
2619494366,93084,29.67,640.43,31.31,80.33,-3.62,15087.16,-4194.58,1870.61,853.76,-2.99,32.71,628,637,1,0,0
2619504695,93084,29.67,640.43,33.15,80.29,6.67,15087.16,-4194.58,1870.61,843.26,-2.62,32.41,628,637,1,0,0
2619515047,92934,29.66,653.82,34.93,80.23,16.8,15087.16,-4194.58,1870.61,832.89,1.04,31.74,628,637,1,0,0
2619525384,92934,29.66,653.82,36.56,80.12,26.67,15087.16,-4194.58,1870.61,822.57,1.53,30.58,628,637,1,0,0
2619535721,92934,29.66,653.82,37.94,79.96,36.19,15087.16,-4194.58,1870.61,812.93,0.31,29.05,628,637,1,0,0
2619546054,92934,29.66,653.82,39.15,79.79,45.44,15087.16,-4194.58,1870.61,803.59,2.08,27.53,628,637,1,0,0
2619556396,92934,29.66,653.82,40.17,79.61,54.39,15087.16,-4194.58,1870.61,791.87,2.87,26.37,628,637,1,0,0
2619566706,92787,29.66,666.95,40.98,79.4,63.02,15087.16,-4194.58,1870.61,782.17,2.93,25.33,628,637,1,0,0
2619577017,92787,29.66,666.95,41.66,79.19,71.41,15087.16,-4194.58,1870.61,772.46,4.03,24.84,628,637,1,0,0
2619587322,92787,29.66,666.95,42.13,78.95,79.48,15087.16,-4194.58,1870.61,760.8,3.3,24.9,628,637,1,0,0
2619597639,92787,29.66,666.95,42.42,78.71,87.25,15087.16,-4194.58,1870.61,748.29,3.23,24.84,628,637,1,0,0
2619607958,92787,29.66,666.95,42.54,78.46,94.73,15087.16,-4194.58,1870.61,736.57,3.11,24.54,628,637,1,0,0
2619618293,92645,29.66,679.65,42.53,78.21,101.96,15087.16,-4194.58,1870.61,723.14,3.42,24.48,628,637,1,0,0
2619628638,92645,29.66,679.65,42.4,77.97,108.98,15087.16,-4194.58,1870.61,711.98,4.03,24.23,628,637,1,0,0
2619638967,92645,29.66,679.65,42.2,77.73,115.79,15087.16,-4194.58,1870.61,700.5,5.25,23.8,628,637,1,0,0
2619649299,92645,29.66,679.65,41.92,77.5,122.42,15087.16,-4194.58,1870.61,689.09,5.74,23.07,628,637,1,0,0
2619659665,92645,29.66,679.65,41.49,77.29,128.81,15087.16,-4194.58,1870.61,677.61,4.33,22.4,628,637,1,0,0
2619669972,92495,29.65,693.09,40.97,77.1,134.9,15087.16,-4194.58,1870.61,661.19,4.03,22.28,628,637,1,0,0
2619680318,92495,29.65,693.09,40.36,76.92,140.82,15087.16,-4194.58,1870.61,648.44,3.3,21.85,628,637,1,0,0
2619690662,92495,29.65,693.09,39.7,76.77,146.54,15087.16,-4194.58,1870.61,635.5,3.17,21.67,628,637,1,0,0
2619700966,92495,29.65,693.09,38.97,76.64,152.07,15087.16,-4194.58,1870.61,624.33,2.44,21.48,628,637,1,0,0
2619711303,92495,29.65,693.09,38.23,76.51,157.5,15087.16,-4194.58,1870.61,613.83,3.6,21.24,628,637,1,0,0
2619721625,92350,29.65,706.09,37.51,76.39,162.84,15087.16,-4194.58,1870.61,603.21,5.43,20.51,628,637,1,0,0
2619731941,92350,29.65,706.09,36.78,76.29,168.05,15024.9,-2969.97,7272.95,592.96,5.92,19.59,628,637,1,0,0
2619742282,92350,29.65,706.09,36.04,76.21,173.18,15024.9,-2969.97,7272.95,582.46,5.37,18.86,628,637,1,0,0
2619752593,92350,29.65,706.09,35.31,76.16,178.18,15024.9,-2969.97,7272.95,570.74,3.54,18.13,628,637,1,0,0
2619762896,92350,29.65,706.09,34.6,76.14,-176.93,15024.9,-2969.97,7272.95,558.96,2.14,17.58,628,637,1,0,0
