time_us,pressure_pa,temp,altitude,fakeYaw,fakePitch,fakeRoll,ax,ay,az,wx,wy,wz,cont_drogue,cont_main,state,fired_main_us,fired_drogue_us
4607653,100124,26.71,0,180,0,0,599.12,3628.42,657.71,-4.03,-0.31,-0.85,0,0,0,0,0
4618091,100124,26.71,0,179.99,-0.01,0.05,566.89,3603.52,651.12,-1.46,-0.24,-0.98,0,0,0,0,0
4628096,100124,26.71,0,179.98,-0.03,0.08,590.33,3534.67,692.87,-1.71,-0.31,-0.73,0,0,0,0,0
4638098,100124,26.71,0,179.98,-0.04,0.11,621.83,3569.09,733.15,-3.05,-0.24,-0.18,0,0,0,0,0
4648098,100124,26.71,0,179.99,-0.05,0.13,635.74,3675.29,799.8,-4.03,0.18,0.85,0,0,0,0,0
4658654,100122,26.72,0,180.01,-0.05,0.14,588.87,3716.31,707.52,-4.21,0.92,1.83,0,0,0,0,0
4668658,100122,26.72,0,180.03,-0.04,0.16,569.82,3820.31,644.53,-3.78,1.77,2.69,0,0,0,0,0
4678661,100122,26.72,0,180.07,-0.02,0.19,631.35,3854,572.02,-3.11,2.56,3.3,0,0,0,0,0
4688663,100122,26.72,0,180.1,0,0.22,629.15,3876.71,572.02,-2.62,2.56,3.05,0,0,0,0,0
4698666,100122,26.72,0,180.12,0.01,0.25,607.18,3900.88,593.99,-1.95,2.01,2.32,0,0,0,0,0
4709634,100120,26.74,0,180.14,0.01,0.31,649.66,3885.5,609.37,-0.31,1.46,1.65,0,0,0,0,0
5628947,100112,26.94,0,184.26,0,6.86,799.8,3685.55,620.36,1.04,-2.69,0.31,640,638,0,0,0
6639282,100112,27,0,185.24,-3.8,7.77,998.29,3517.09,854,-7.87,2.56,-5.68,640,638,0,0,0
7659048,100118,27.05,0,184.87,-5.39,12.93,986.57,3617.43,826.9,-0.12,1.83,0.73,640,638,0,0,0
8678857,100113,27.1,0,184.54,-7.64,18.49,1023.93,3581.54,988.77,-1.71,-2.81,-0.06,640,638,0,0,0
9698682,100110,27.15,0,183.75,-9.17,23.22,1017.33,3573.49,925.05,-1.22,-0.06,0.67,640,638,0,0,0
10710048,100109,27.19,0,182.73,-9.97,28.61,1023.93,3574.95,900.15,0.24,0.49,0.06,637,637,0,0,0
11729865,100114,27.23,0,181.46,-10.91,35.7,1045.17,3340.58,766.85,4.7,4.58,-1.22,637,637,0,0,0
12749684,100109,27.26,0,180.31,-12.51,41.99,978.52,3634.28,767.58,2.01,-3.11,-2.62,637,637,0,0,0
13769465,100105,27.29,0,179.61,-13.91,48.29,1086.18,4240.72,667.97,-8.79,-1.1,5.07,637,637,0,0,0
14789242,100107,27.33,0,177.74,-10.02,41.86,743.41,3440.92,1315.43,9.4,0.37,0.85,637,637,0,0,0
15800621,100111,27.36,0,174.67,-11.47,51.16,635.74,3672.36,1138.92,12.08,-3.11,-0.37,640,637,0,0,0
16820392,100101,27.38,0,171.71,-15.05,53.92,901.61,3659.18,1135.25,-12.08,7.51,8.48,640,637,0,0,0
17840202,100112,27.41,0,166.67,-16.07,57.57,971.92,3366.94,1153.56,4.58,-0.43,2.08,640,637,0,0,0
18860015,100112,27.43,0,166.28,-16.04,62.96,1010.74,3444.58,1271.48,4.33,1.83,-0.24,640,637,0,0,0
19879844,100111,27.45,0,165.78,-18.14,72.69,1222.41,3610.11,929.44,15.26,-4.15,4.88,640,637,0,0,0
20891252,100111,27.48,0,165.08,-18.19,68.27,1176.27,3242.43,1511.72,-9.16,-2.99,-1.59,641,637,0,0,0
21911022,100105,27.51,0,165.56,-17.6,67.9,1171.88,3473.14,1400.39,-4.46,2.08,-3.66,641,637,0,0,0
22933587,100108,27.52,0,165.57,-16.79,67.36,1115.48,3369.14,1418.7,0.98,-0.85,-0.12,641,637,0,0,0
23953412,100108,27.56,0,165.63,-16.84,67.32,1125,3388.92,1447.27,-1.59,-2.14,-0.73,641,637,0,0,0
24973214,100108,27.58,0,164.88,-16.71,68.23,1097.17,3412.35,1365.97,0.79,0.37,0.31,641,637,0,0,0
25984572,100107,27.61,0,164.71,-17.66,67.12,1196.04,3205.81,1489.01,14.16,0.06,-10.99,638,638,0,0,0
27004328,100104,27.63,0,163.51,-18.96,71.23,1202.64,3448.97,1171.14,21.42,10.44,-4.09,638,638,0,0,0
28024096,100100,27.67,0,161.18,-18.11,93.73,1256.1,3670.17,-626.22,17.21,6.59,4.33,638,638,0,0,0
29043905,100106,27.67,0,158.68,-18.3,101.34,1089.11,3684.08,-620.36,-7.75,-11.72,-0.61,638,638,0,0,0
30062738,100104,27.69,0,157.75,-17.04,93.7,798.34,3802,525.15,20.69,2.62,7.45,636,628,0,0,0
31074235,100102,27.72,0,159.45,-17.81,99.27,1206.3,3733.15,-719.24,18.74,22.89,-10.8,636,628,0,0,0
32094008,100109,27.75,0,190.02,-0.24,123.64,16.11,3439.45,-2124.02,48.03,10.19,-11.47,636,628,0,0,0
33113788,100105,27.75,0,195.38,-4.69,161.35,57.13,1420.9,-3925.78,44.68,10.99,-5.68,636,628,0,0,0
34133538,100103,27.78,0,189.21,1.99,-176.35,-274.66,-284.91,-3639.4,12.82,-25.15,2.08,636,628,0,0,0
35151285,100100,27.81,0,188.14,7.7,-169.04,-610.11,-706.05,-3605.71,10.68,0.12,0.79,640,637,0,0,0
36164638,100099,27.84,0,190.77,7.51,-171.37,-644.53,-617.43,-3922.12,-4.52,0.18,-1.04,640,637,0,0,0
37184360,100102,27.85,0,190.7,7.7,-171.06,-560.3,-624.76,-3917.72,0.31,0.06,0.18,640,637,0,0,0
38204084,100098,27.85,0,190.66,7.64,-171.05,-538.33,-614.5,-3932.37,0.37,0.31,0.06,640,637,0,0,0
39223852,100102,27.86,0,190.92,7.72,-172.25,-556.64,-552.98,-3955.08,7.63,0.24,0.55,640,637,0,0,0
40239616,100094,27.84,0,190.92,7.55,-172.58,-558.84,-454.1,-4033.45,-0.06,0.18,-0.12,641,637,0,0,0
41259438,100095,27.83,0,190.91,7.51,-172.42,-515.62,-526.61,-3940.43,0.06,0.12,0.12,641,637,0,0,0
42279146,100095,27.83,0,190.9,7.64,-172.4,-528.81,-534.67,-3954.35,0.18,0,-0.12,641,637,0,0,0
43298891,100097,27.83,0,191.07,7.56,-173.01,-519.29,-491.46,-3992.43,-4.15,0.12,-0.31,641,637,0,0,0
44318679,100097,27.83,0,191.67,7.74,-175.95,-545.65,-281.98,-3971.19,-1.4,-0.12,-0.37,641,637,0,0,0
45332479,100091,27.84,0,191.57,7.51,-175.83,-518.55,-288.57,-3960.21,-5.07,0.06,-0.61,637,638,0,0,0
46349753,100094,27.82,0,191.69,7.86,-176.23,-1283.94,-78.37,-4248.05,23.32,2.56,4.21,637,638,0,0,0
47369483,100100,27.81,0,191.15,7.62,-170.69,-526.61,-629.88,-3936.77,0.06,0.12,0.06,637,638,0,0,0
48389197,100103,27.82,0,191.13,7.58,-170.56,-532.47,-626.22,-3933.84,-0.24,0.06,0.06,637,638,0,0,0
49408938,100094,27.83,0,191,7.68,-169.92,-540.53,-692.87,-3942.63,-17.09,-0.12,-2.44,637,638,0,0,0
50420838,100100,27.84,0,191.39,7.6,-171.56,-541.99,-598.39,-3927.98,1.95,0.06,0.06,636,638,0,0,0
51440039,100102,27.86,0,191.44,7.48,-172.38,-505.37,-520.02,-3922.12,0.37,0.06,-0.06,636,638,0,0,0
52454879,100100,27.86,0,191.54,7.58,-172.86,-544.19,-525.15,-3943.36,2.01,0.06,0.24,636,638,0,0,0
53470130,100101,27.87,0,191.65,7.69,-173.25,-504.64,-465.09,-4013.67,4.58,-0.18,0.43,636,638,0,0,0
54489863,100097,27.9,0,191.61,7.72,-172.99,-566.89,-476.07,-3960.94,-1.46,0.12,-0.24,636,638,0,0,0
55501712,100104,27.93,0,191.58,7.49,-171.96,-526.61,-570.56,-3976.32,0.24,-0.18,-0.12,643,633,0,0,0
56520913,100095,27.95,0,191.49,7.53,-172.35,-519.29,-525.15,-3952.15,0,0,-0.06,643,633,0,0,0
57540665,100106,27.96,0,191.5,7.58,-172.14,-509.03,-516.36,-3951.42,-0.31,0.18,0.12,643,633,0,0,0
58560384,100094,27.97,0,191.48,7.45,-172.1,-535.4,-561.04,-3942.63,0.31,0.24,-0.18,643,633,0,0,0
59580136,100100,28,0,191.43,7.62,-172.16,-516.36,-541.26,-3938.96,0.06,-0.12,-0.06,643,633,0,0,0
60591517,100100,28,0,191.42,7.63,-172.12,-520.02,-544.19,-3961.67,0,0,-0.12,631,638,0,0,0
61611269,100095,28.01,0,191.36,7.6,-172.26,-516.36,-506.84,-3971.92,0.12,-0.06,-0.24,631,638,0,0,0
62631015,100106,28.03,0,191.34,7.62,-172.29,-509.77,-528.08,-3950.68,0.49,0.12,0.06,631,638,0,0,0
63650792,100103,28.04,0,191.35,7.61,-172.13,-523.68,-563.96,-3961.67,0.31,-0.06,-0.12,631,638,0,0,0
64671646,100102,28.06,0,191.32,7.62,-172.18,-551.51,-522.95,-3951.42,-0.06,0.18,0.12,631,638,0,0,0
65681891,100106,28.07,0,191.34,7.54,-172.05,-513.43,-561.77,-3930.18,-0.12,0.06,-0.12,640,636,0,0,0
66704622,100092,28.1,0,191.3,7.63,-172.13,-535.4,-540.53,-3936.04,0.06,0.18,-0.12,640,636,0,0,0
67724393,100104,28.11,0,191.3,7.71,-172.09,-528.81,-548.58,-3945.56,0.06,0.18,0,640,636,0,0,0
68744132,100103,28.11,0,191.24,7.58,-172.23,-542.72,-524.41,-3947.75,0,0.06,0,640,636,0,0,0
69763888,100089,28.13,0,191.27,7.66,-172.11,-541.99,-563.23,-3952.88,0,0.06,-0.06,640,636,0,0,0
70775286,100095,28.14,0,191.24,7.63,-172.03,-533.2,-576.42,-3968.99,-0.06,0.06,0.06,639,640,0,0,0
71794970,100096,28.15,0,191.22,7.63,-172.13,-532.47,-552.98,-3921.39,-0.18,-0.06,-0.18,639,640,0,0,0
72814676,100102,28.15,0,191.19,7.76,-172.13,-550.78,-533.2,-3941.16,0.06,0.06,0,639,640,0,0,0
73834369,100098,28.15,0,191.17,7.57,-172.29,-531.01,-511.96,-3951.42,0.18,0,-0.12,639,640,0,0,0
74854067,100095,28.17,0,191.23,7.63,-172.09,-539.06,-554.44,-3933.11,-0.06,0.06,-0.18,639,640,0,0,0
75864392,100094,28.17,0,191.22,7.64,-172.28,-508.3,-566.16,-3952.88,0.31,-0.12,-0.06,642,636,0,0,0
76884112,100100,28.2,0,191.21,7.52,-172.09,-511.23,-568.36,-3922.12,-0.12,0.24,0.12,642,636,0,0,0
77903889,100102,28.2,0,191.16,7.58,-172.07,-539.79,-565.43,-3936.77,0,0.18,-0.06,642,636,0,0,0
78923657,100094,28.2,0,191.12,7.66,-172.21,-547.12,-563.23,-3938.23,0.18,0.06,0,642,636,0,0,0
79943412,100096,28.19,0,191.12,7.59,-172.08,-537.6,-549.32,-3963.87,0.12,0.18,0.18,642,636,0,0,0
80954793,100103,28.16,0,191.09,7.59,-172.29,-513.43,-524.41,-3959.47,0.85,-0.18,0,639,631,0,0,0
81974573,100094,28.16,0,191.14,7.61,-172.1,-518.55,-552.25,-3917.72,0.12,0.12,0,639,631,0,0,0
82994310,100085,28.14,0,191.09,7.54,-172.32,-522.22,-513.43,-3945.56,0.12,0.06,-0.12,639,631,0,0,0
84014065,100092,28.1,0,191.07,7.59,-172.15,-538.33,-520.75,-3968.99,0.12,-0.06,-0.18,639,631,0,0,0
85033927,100090,28.1,0,191.07,7.66,-172.16,-554.44,-498.05,-3120.12,0.73,0.18,0.06,640,640,0,0,0
86045113,100100,28.09,0,191.06,7.66,-172.13,-532.47,-558.11,-3937.5,0.06,0,-0.18,640,640,0,0,0
87064864,100100,28.1,0,191,7.63,-172.38,-522.95,-492.19,-3935.3,0.12,0.24,0.12,640,640,0,0,0
88084643,100098,28.08,0,191.01,7.68,-172.18,-538.33,-558.84,-3957.28,0.61,0.18,0,640,640,0,0,0
89104397,100099,28.06,0,191,7.69,-172.08,-531.01,-558.11,-3919.19,-0.06,0.18,0.12,640,640,0,0,0
90123142,100102,28.06,0,190.97,7.51,-172.21,-511.23,-585.21,-4462.65,0.18,0.12,0.12,638,640,0,0,0
91135482,100094,28.07,0,190.96,7.57,-172.15,-530.27,-522.95,-3914.79,-0.12,0.12,-0.06,638,640,0,0,0
92155242,100098,28.05,0,190.93,7.65,-172.11,-498.05,-517.09,-3957.28,0.18,0.37,0.18,638,640,0,0,0
93177488,100101,28.07,0,190.87,7.64,-172.25,-536.13,-539.06,-3955.81,0.24,-0.06,0,638,640,0,0,0
94197225,100092,28.07,0,190.9,7.62,-172.13,-528.81,-555.18,-3936.04,0.06,0.12,-0.12,638,640,0,0,0
95213994,100095,28.07,0,190.88,7.64,-172.26,-574.22,-533.94,-3579.35,0.06,0.18,-0.12,641,638,0,0,0
96230926,100096,28.09,0,190.89,7.53,-172.17,-500.24,-565.43,-3967.53,0,0,-0.06,641,638,0,0,0
97250651,100102,28.09,0,190.89,7.59,-172.17,-531.01,-554.44,-3953.61,-0.31,0.24,0.06,641,638,0,0,0
98270379,100093,28.1,0,190.9,7.66,-172.12,-533.2,-544.92,-3935.3,0,0.31,0.18,641,638,0,0,0
99290101,100092,28.11,0,190.89,7.74,-172.17,-541.26,-544.19,-3952.15,-0.18,0,0.12,641,638,0,0,0
100304847,100091,28.12,0,190.88,7.57,-172.14,-520.02,-536.87,-3944.82,0.24,0.12,0,641,640,0,0,0
101320158,100099,28.12,0,190.79,7.22,-171.21,-568.36,-525.88,-4126.46,18.43,9.03,-1.4,641,640,0,0,0
102339918,100092,28.11,0,182.13,-7.43,151.83,375.73,2164.31,-3507.57,-53.22,16.72,18.31,641,640,0,0,0
103359771,100095,28.11,0,191.02,-21.04,135.37,1339.6,2529.79,-2408.2,8.67,1.1,-9.64,641,640,0,0,0
104379552,100094,28.08,0,203.23,-28.06,162.64,2334.96,1031.25,-3450.44,54.57,32.23,-23.62,641,640,0,0,0
105393412,100101,28.06,0,198.68,-27.18,166.4,1882.32,1349.12,-3426.27,29.6,14.83,-8.73,637,640,0,0,0
106410705,100100,28.09,0,200.54,-25.17,173.67,1721.19,270.26,-3750,-14.59,-9.77,4.21,637,640,0,0,0
107430453,100097,28.12,0,200.75,-27.14,-168.67,2066.16,-2168.7,-3525.15,2.81,-8.54,-3.91,637,640,0,0,0
108450189,100097,28.12,0,199.17,-25.29,-179.99,1633.3,-63.72,-3363.28,-27.71,0,7.26,637,640,0,0,0
109469927,100099,28.13,0,191.21,-23.04,165.22,1587.16,744.14,-3416.75,-18.43,-6.71,8.24,637,640,0,0,0
110481794,100100,28.15,0,190.99,-18.18,157.8,1146.97,1226.07,-3513.43,6.29,5.43,-2.62,638,637,0,0,0
111503417,100096,28.16,0,188.7,-17.99,154.05,1372.56,1516.85,-3634.28,-7.08,-2.62,4.03,638,637,0,0,0
112523181,100096,28.14,0,192.41,-7.66,147.61,-222.66,1739.5,-6169.19,9.03,13.49,-4.39,638,637,0,0,0
113542943,100091,28.14,0,185.04,-0.88,150.88,90.09,1948.24,-3208.01,-1.89,2.08,-4.7,638,637,0,0,0
114562751,100089,28.12,0,178.08,1.13,153.67,-87.16,2317.38,-3210.94,13.06,-6.71,-16.6,638,637,0,0,0
115575726,100091,28.13,0,179.86,0.31,155.58,311.28,1246.58,-2784.67,-10.25,18.19,-12.02,641,637,0,0,0
116593868,100090,28.15,0,187.44,3.84,162.51,5.13,1959.23,-3665.77,-4.58,3.85,-28.38,641,637,0,0,0
117613634,100087,28.17,0,185.34,3.96,172.23,-243.9,845.21,-3758.06,35.77,-22.16,2.01,641,637,0,0,0
118633413,100085,28.18,0,188.65,58.94,-138.18,-2712.16,-872.31,-960.21,83.13,-70.31,75.62,641,637,0,0,0
119653191,100091,28.17,0,175.7,84.82,-136.28,-3978.52,-522.22,-16.85,-3.72,-20.81,17.94,641,637,0,0,0
120664635,100093,28.18,0,167.4,84.7,-149.25,-3793.21,-100.34,-589.6,4.27,0.67,2.62,634,637,0,0,0
121684419,100088,28.2,0,146.16,77.05,-155.87,-3832.03,-306.15,-713.38,22.95,5,-6.16,634,637,0,0,0
122704209,100091,28.22,0,141.75,76.57,-152.49,-3802,-329.59,-602.05,33.57,-15.14,-5.25,634,637,0,0,0
123724019,100087,28.22,0,148.43,77.29,-122.59,-3993.9,180.91,-1913.82,19.04,-7.32,10.31,634,637,0,0,0
124743853,100093,28.23,0,162.27,86.62,-98.92,-3879.64,-370.61,-59.33,1.28,0.85,4.09,634,637,0,0,0
125754304,100087,28.25,0,156.31,87.3,-106.3,-3911.87,16.11,-39.55,19.59,-3.97,3.66,633,640,0,0,0
126774675,100095,28.26,0,110.26,88.47,-143.23,-3918.46,46.14,23.44,14.59,-2.5,0.85,633,640,0,0,0
127793916,100095,28.27,0,111.14,85.74,-139.73,-4016.6,3.66,-243.9,8.3,1.71,2.14,633,640,0,0,0
128813728,100087,28.29,0,150.55,86.1,-100.14,-3895.02,332.52,-164.79,7.26,0.98,-3.78,633,640,0,0,0
129833500,100089,28.32,0,153.59,80.29,-99.51,-3880.37,-702.39,228.52,-12.57,-3.97,-5.37,633,640,0,0,0
130844957,100093,28.34,0,189.94,51.01,-61.35,-3329.59,-2802.98,1732.91,22.83,17.88,19.23,634,637,0,0,0
131864783,100091,28.36,0,133.93,83.95,-148.12,-3920.65,-323,-268.8,-123.84,1.46,0.73,634,637,0,0,0
132884575,100092,28.39,0,119.33,85.12,145.08,-3943.36,123.78,-170.65,-1.34,3.6,-5.25,634,637,0,0,0
133904332,100087,28.4,0,236,87.45,-88.39,-3325.93,-20.51,-135.5,24.11,-38.64,-25.15,634,637,0,0,0
134924147,100084,28.43,0,300.87,81.84,-35.47,-3928.71,-365.48,440.92,-15.26,10.8,13.49,634,637,0,0,0
135935588,100093,28.45,0,202.02,89.73,-134.53,-3753.66,63.72,-112.06,-0.92,0.79,-3.11,631,634,0,0,0
136957608,100091,28.47,0,235.88,82.96,-105.91,-3911.87,-541.26,-177.98,-6.1,4.27,-5.13,631,634,0,0,0
137977412,100094,28.48,0,230.92,83.62,-112.04,-3929.44,-438.72,-172.85,-9.09,1.89,3.11,631,634,0,0,0
138997229,100097,28.51,0,90.31,84.29,82.7,-3904.54,344.24,45.41,-3.11,-2.62,0.61,631,634,0,0,0
140017010,100093,28.53,0,124.48,88.41,124.82,-3826.17,124.51,-73.97,15.99,-3.97,-1.59,631,634,0,0,0
141028439,100084,28.54,0,214,89.76,-143.64,-3873.05,-95.21,-33.69,13.31,-4.39,-10.68,628,634,0,0,0
142048221,100088,28.56,0,296.17,89.18,-60.72,-3927.98,-90.09,49.8,-18.86,1.28,-3.42,628,634,0,0,0
143068004,100083,28.58,0,25.39,88.22,23.28,-3993.9,191.16,49.8,-8.97,0,5.68,628,634,0,0,0
144087773,100092,28.6,0,63.4,89.88,51.86,-3949.22,123.78,-43.95,3.05,-0.24,-2.5,628,634,0,0,0
145106569,100087,28.61,0,355.31,87.99,-30.42,-3908.2,-19.78,-744.87,-29.54,-1.28,-0.37,637,640,0,0,0
146122252,100094,28.64,0,221.28,89.82,-168.64,-3802,-142.09,-90.09,-16.48,2.62,5.31,637,640,0,0,0
147146515,100093,28.66,0,135.87,88.98,109.88,-3956.54,695.8,-149.41,-23.56,-0.98,-1.71,637,640,0,0,0
148166253,100089,28.68,0,208.03,88.86,178.28,-4012.21,125.24,-123.78,-15.93,2.81,4.52,637,640,0,0,0
149186037,100091,28.7,0,99.74,89.58,74.94,-3999.76,47.61,-26.37,-8.67,1.89,3.17,637,640,0,0,0
150202838,100088,28.71,0,243.52,87.99,-133.89,-4001.95,-134.03,122.31,6.29,-4.27,0.18,643,640,0,0,0
151216316,100086,28.73,0,275.96,87.28,-91.91,-3889.89,-301.76,-87.16,4.82,4.58,1.46,643,640,0,0,0
152236131,100093,28.75,0,286.09,89.65,-79.35,-3853.27,-234.37,1.46,-1.95,0.37,-0.61,643,640,0,0,0
153255950,100092,28.77,0,239.55,82.81,-133.93,-3872.31,-413.09,-323,-1.53,-9.7,5.19,643,640,0,0,0
154275758,100091,28.79,0,53.39,88.58,48.35,-3848.88,139.16,109.86,-6.04,-1.1,-0.18,643,640,0,0,0
155291556,100089,28.8,0,11.53,88.74,5.63,-3891.36,-46.88,222.66,1.53,-3.91,-1.16,628,635,0,0,0
156306934,100087,28.82,0,14.33,89.84,9.95,-4007.81,95.95,-42.48,0.18,1.65,-0.73,628,635,0,0,0
157326780,100086,28.84,0,354.31,86.31,-5.82,-3950.68,-89.36,309.08,0.61,-2.26,1.83,628,635,0,0,0
158346513,100093,28.86,0,11.6,86.42,12.38,-3830.57,129.64,107.67,1.28,2.08,2.81,628,635,0,0,0
159366276,100090,28.87,0,2.05,87.45,3.79,-3943.36,-147.22,91.55,10.44,1.34,-4.15,628,635,0,0,0
160380112,100091,28.89,0,317.68,87.52,-41.06,-4155.76,-488.53,692.14,26.61,-13.37,-1.95,646,638,0,0,0
161397486,100091,28.91,0,22.42,85.64,26.06,-3930.18,207.28,-53.47,-31.74,11.35,-3.3,646,638,0,0,0
162417198,100094,28.93,0,341.11,87.22,-17.52,-3860.6,62.26,503.17,-7.14,-0.92,-2.44,646,638,0,0,0
163436950,100094,28.94,0,343.44,86.12,-16.27,-3942.63,-99.61,205.81,-20.51,-5.55,7.26,646,638,0,0,0
164456753,100090,28.96,0,254,86.32,-154.52,-3968.26,-33.69,-336.18,-30.7,9.16,2.69,646,638,0,0,0
165471640,100094,28.98,0,298.86,89.96,176.6,-3878.17,-79.83,17.58,-28.08,7.81,-1.71,643,636,0,0,0
166487978,100098,29,0,31.72,87.62,-105.53,-3992.43,-156.74,-124.51,15.26,-1.77,1.22,643,636,0,0,0
167507806,100088,29.01,0,46.78,88.02,-84.17,-3973.39,-88.62,-161.13,-6.1,1.1,-2.62,643,636,0,0,0
168527612,100095,29.03,0,31.01,86.42,-100.06,-3969.73,-8.06,127.44,13.49,3.11,1.16,643,636,0,0,0
169547371,100095,29.05,0,12.66,84.94,-119.02,-3951.42,-414.55,-361.82,-2.75,1.89,-4.21,643,636,0,0,0
170558855,100091,29.06,0,21.12,84.9,-110.3,-3214.6,-904.54,572.02,17.94,-2.08,3.17,637,643,0,0,0
171578655,100090,29.08,0,29.97,86.32,-101.41,-3674.56,-6.59,-58.59,60.36,9.34,-2.32,637,643,0,0,0
172598438,100085,29.1,0,36.11,85.45,-96.74,-4044.43,-484.86,-158.94,-11.72,1.95,-6.47,637,643,0,0,0
173620435,100089,29.12,0,22.71,81.57,-131.31,-3938.23,-232.91,-498.78,-18.98,-1.59,3.36,637,643,0,0,0
174640222,100099,29.13,0,33.97,83.05,-116.56,-3944.09,-312.74,-47.61,2.99,5,-1.22,637,643,0,0,0
175650662,100096,29.14,0,40.53,81.39,-114.1,-3960.94,-590.33,-258.54,8.42,5.86,3.6,639,638,0,0,0
176670468,100090,29.16,0,29.42,86.45,-130.98,-3870.85,-11.72,-158.2,-51.09,1.53,18.37,639,638,0,0,0
177690276,100086,29.17,0,171.43,85.24,14.52,-4066.41,26.37,414.55,-37.84,-37.78,44.49,639,638,0,0,0
178714648,100093,29.19,0,220.72,20.86,31.11,-1246.58,1878.66,3135.5,5.31,-16.24,19.84,639,638,0,0,0
179729803,100089,29.2,0,216.84,21.99,34.49,-1376.22,1945.31,2857.18,-2.5,3.17,-7.26,639,638,0,0,0
180741146,100090,29.21,0,216,19.22,32.57,-1245.12,1931.4,3347.9,-22.95,5.25,34.18,643,638,0,0,0
181760943,100092,29.23,0,220.06,20.83,15.04,-1466.31,1014.4,3823.97,18.92,-23.62,-17.27,643,638,0,0,0
182780776,100095,29.25,0,229.75,9.22,6.47,-768.31,841.55,3814.45,-9.03,-16.72,5.62,643,638,0,0,0
183800596,100098,29.26,0,215.06,8.74,11.56,-495.12,709.72,3492.19,6.9,-0.61,-75.62,643,638,0,0,0
184820352,100093,29.28,0,152.43,2.53,-9.49,134.03,-1275.15,5151.86,-68.24,-13.92,-7.2,643,638,0,0,0
185831729,100094,29.3,0,150.19,4.61,-15.48,-334.72,-1062.74,3826.9,0,0.24,0.06,634,640,0,0,0
186851475,100096,29.32,0,135.09,2.13,-39.1,-211.67,-2729,2671.14,-7.75,-2.62,-6.53,634,640,0,0,0
187871266,100090,29.34,0,134.55,1.49,-39.08,-24.9,-2581.05,3210.94,1.71,-4.21,-3.11,634,640,0,0,0
188891062,100095,29.36,0,134.49,1.2,-39.1,-30.76,-2676.27,3251.22,2.2,1.16,0.61,634,640,0,0,0
189910867,100092,29.38,0,134.4,1.29,-39.29,232.91,-3383.06,3640.14,0.85,0.06,0.18,634,640,0,0,0
190926583,100091,29.39,0,134.35,1.47,-39.15,-112.79,-2563.48,3186.04,1.34,0.06,-0.06,638,639,0,0,0
191946380,100102,29.41,0,134.3,1.17,-39.48,-68.12,-2605.96,3123.78,0.24,0.18,0,638,639,0,0,0
192966171,100096,29.42,0,134.25,1.22,-39.49,-84.23,-2581.79,3147.95,0.73,0.12,0.06,638,639,0,0,0
193985955,100092,29.44,0,134.18,1.44,-39.6,-110.6,-2602.29,3141.36,-0.12,0.12,0.06,638,639,0,0,0
195005739,100089,29.46,0,134.12,1.42,-39.6,-95.95,-2603.03,3154.54,0.79,0,0.06,638,639,0,0,0
196017114,100088,29.47,0,134.06,1.47,-39.77,-108.4,-2606.69,3133.3,0.18,0.06,0.06,635,634,0,0,0
197036858,100087,29.49,0,134,1.57,-39.48,-113.53,-2553.96,3123.78,-0.37,0.06,0,635,634,0,0,0
198047215,100087,29.5,0,133.95,1.43,-39.81,-118.65,-2607.42,3118.65,0.06,0.12,-0.24,635,634,0,0,0
199066991,100090,29.52,0,133.89,1.42,-39.76,-90.09,-2609.62,3116.46,-0.18,0.12,0.12,635,634,0,0,0
200086753,100093,29.53,0,133.84,1.48,-39.69,-114.99,-2620.61,3164.79,0,-0.18,0.06,638,628,0,0,0
201098185,100093,29.55,0,133.78,1.25,-39.83,-110.6,-2600.83,3167.72,0.37,0.06,0.24,638,628,0,0,0
202117967,100092,29.56,0,133.72,1.55,-39.68,-130.37,-2589.11,3123.78,0.79,0.24,-0.12,638,628,0,0,0
203137799,100096,29.58,0,133.68,1.36,-39.79,-75.44,-2627.93,3121.58,0.67,0.31,0.12,638,628,0,0,0
204157599,100097,29.59,0,133.6,1.41,-39.72,-119.38,-2611.82,3139.89,-0.06,0.49,0.31,638,628,0,0,0
205175392,100091,29.61,0,133.53,1.45,-39.73,-65.92,-2647.71,2767.82,0.55,0.37,-0.12,637,636,0,0,0
206188800,100093,29.63,0,133.47,1.27,-39.73,-81.3,-2499.76,3015.38,0.24,0.12,0.18,637,636,0,0,0
207208582,100091,29.64,0,133.43,1.36,-39.49,-91.55,-2589.84,3164.06,0.37,0.12,0,637,636,0,0,0
208228388,100093,29.65,0,133.36,1.37,-39.83,-98.88,-2564.21,3008.06,-4.03,0.49,0.24,637,636,0,0,0
209252518,100089,29.67,0,133.29,1.42,-39.77,-127.44,-2622.8,3154.54,0.12,0.18,0.12,637,636,0,0,0
210268349,100093,29.68,0,133.23,1.28,-39.59,-136.96,-2556.15,3796.14,0.49,-0.12,0.12,633,633,0,0,0
211283775,100093,29.69,0,133.16,1.54,-39.51,-145.75,-2606.69,3213.13,1.59,0.85,0.73,633,633,0,0,0
212303597,100091,29.71,0,133.1,1.41,-39.6,-183.84,-2483.64,3006.59,3.23,0.79,0.24,633,633,0,0,0
213323380,100091,29.73,0,133.07,1.48,-39.22,-101.81,-2564.94,3166.26,-0.85,-0.06,0.06,633,633,0,0,0
214343169,100101,29.75,0,141.83,5.48,-29.82,63.72,-1798.83,4056.88,52.25,-22.52,9.52,633,633,0,0,0
215356948,100093,29.76,0,153.13,25.27,-1.78,-1515.38,-155.27,3407.96,-10.44,40.83,-20.51,634,636,0,0,0
216374282,100088,29.77,0,155.15,41.74,2.13,-2451.42,139.89,2920.9,-2.62,3.3,-2.56,634,636,0,0,0
217394066,100090,29.78,0,153.9,46.45,3.65,-2918.7,130.37,2775.88,0.61,3.54,-2.08,634,636,0,0,0
218413881,100088,29.79,0,152.69,46.99,3.78,-2666.02,19.78,2612.55,-3.36,0.37,-0.31,634,636,0,0,0
219433695,100084,29.8,0,153.43,47.93,4.68,-2843.99,261.47,2576.66,-0.31,5.55,2.5,634,636,0,0,0
220445612,100088,29.81,0,153.16,48.68,5.03,-2843.99,340.58,2504.15,4.09,-5.62,-0.79,641,634,0,0,0
221463914,100084,29.82,0,153.11,49.61,5.56,-2664.55,254.88,2496.83,-5.86,8,0.92,641,634,0,0,0
222483722,100091,29.83,0,151.78,49.61,5.43,-3093.75,249.02,2551.03,5.8,-1.4,-8.24,641,634,0,0,0
223503487,100087,29.84,0,96.2,66.23,-29.17,-3906.74,-919.19,1092.04,20.14,36.74,-27.95,641,634,0,0,0
224523242,100092,29.85,0,76.43,74.12,-38.49,-3819.58,-916.26,1185.79,-3.91,-0.61,0.61,641,634,0,0,0
225535210,100094,29.86,0,74.53,77.14,-40.14,-3875.98,-613.77,688.48,0.49,-1.16,0.98,639,636,0,0,0
226554494,100087,29.87,0,69.16,78.26,-45.92,-3872.31,-476.81,639.4,-1.4,1.16,0.24,639,636,0,0,0
227578469,100097,29.88,0,69.12,79.12,-45.33,-3826.9,-1027.59,955.08,-2.01,-6.23,-4.7,639,636,0,0,0
228598243,100088,29.89,0,70.75,79.61,-43.37,-3706.79,-268.07,615.23,1.28,0.73,-0.31,639,636,0,0,0
229618062,100096,29.9,0,64.63,84.37,-40.55,-3870.12,-314.94,284.91,7.2,11.96,13.18,639,636,0,0,0
230629480,100084,29.91,0,333.46,89.47,-136.93,-3911.87,-183.84,-53.47,8.73,2.01,-3.66,637,642,0,0,0
231649202,100094,29.93,0,107.37,89.44,-41.53,-3769.78,-440.92,67.38,-95.34,-0.98,-0.79,637,642,0,0,0
232669009,100094,29.94,0,36.53,87.27,-70.39,-3830.57,-246.09,84.96,8.67,-0.37,-2.69,637,642,0,0,0
233688857,100092,29.95,0,345.41,85.65,-80.58,-3827.64,3188.23,-1450.93,37.6,-2.14,5.25,637,642,0,0,0
234708654,100094,29.96,0,59.86,85.5,32.85,-3832.76,432.86,317.14,69.7,0.55,-3.3,637,642,0,0,0
235720120,100094,29.97,0,82.36,83.71,87.57,-3922.85,298.1,-434.33,-9.64,-1.77,9.03,638,631,0,0,0
236739916,100094,29.99,0,82.21,80.34,90.65,-3837.89,695.07,-26.37,-1.65,0.18,0.18,638,631,0,0,0
237759762,100091,29.99,0,84.52,80.64,92.91,-4011.47,2316.65,839.36,-9.83,0.49,2.38,638,631,0,0,0
238780657,100093,30,0,83.98,80.42,92.56,-3812.26,593.26,5.86,-0.49,-0.06,-0.12,638,631,0,0,0
239799379,100088,30.01,0,84.71,80.37,93.15,-3842.29,659.18,-30.03,0.55,0.06,0,638,631,0,0,0
240811659,100093,30.01,0,84.15,80.6,92.59,-3880.37,637.21,-17.58,-0.37,0.18,0.18,639,636,0,0,0
241830730,100091,30.03,0,83.97,80.53,92.44,-3845.21,662.84,-8.06,-0.06,0.24,0.12,639,636,0,0,0
242850579,100087,30.04,0,83.99,80.38,92.5,-3858.4,668.7,-43.21,0.06,0.12,-0.12,639,636,0,0,0
243870371,100090,30.05,0,84.85,80.48,93.39,-3843.02,636.47,-46.14,0.06,0.18,-0.06,639,636,0,0,0
244890186,100088,30.06,0,84.66,80.36,93.18,-3840.82,672.36,-46.14,-0.24,0.06,-0.06,639,636,0,0,0
245900655,100084,30.08,0,84.75,80.47,93.29,-3870.12,654.79,-41.02,0,0.12,-0.12,636,638,0,0,0
246920473,100093,30.08,0,84.35,80.39,92.9,-3848.88,677.49,-64.45,-0.06,0.06,-0.12,636,638,0,0,0
247940257,100086,30.1,0,84.58,80.43,93.11,-3860.6,605.71,-10.99,0.06,0.24,0,636,638,0,0,0
248960070,100082,30.11,0,84.03,80.42,92.56,-3871.58,644.53,-28.56,-0.12,0.31,-0.06,636,638,0,0,0
249979889,100084,30.11,0,84.58,80.49,93.02,-3860.6,769.78,-32.96,-2.44,0.18,0.67,636,638,0,0,0
250991298,100089,30.13,0,84.42,80.53,92.93,-3868.65,646,-13.18,0.12,0,0,635,638,0,0,0
252011115,100085,30.13,0,84.36,80.37,92.91,-3871.58,651.12,-3.66,-0.06,0.06,0,635,638,0,0,0
253034597,100091,30.14,0,84.59,80.51,93.13,-3829.1,650.39,-23.44,-0.18,0.18,0.06,635,638,0,0,0
254054406,100085,30.15,0,81.32,81.37,116.21,-3951.42,476.07,-625.49,-19.78,-0.98,0.24,635,638,0,0,0
255074237,100082,30.17,0,78.63,82.22,117.8,-4025.39,600.59,671.63,-0.12,-1.16,-0.79,640,635,0,0,0
256085684,100087,30.18,0,85.55,81.32,124.81,-3866.46,478.27,-334.72,-0.06,-0.24,0,640,635,0,0,0
257105494,100086,30.18,0,85.86,81.45,125.12,-3882.57,470.21,-357.42,0.12,0.06,-0.31,640,635,0,0,0
258125310,100084,30.19,0,85.18,81.33,124.4,-3875.24,495.85,-331.79,-0.24,-0.18,-0.18,640,635,0,0,0
259145098,100085,30.21,0,85.44,81.34,124.67,-3895.02,501.71,-313.48,-0.18,0,0.12,640,635,0,0,0
260162925,100088,30.22,0,86.13,81.31,125.35,-3880.37,495.12,-207.28,-0.37,0.12,-0.06,636,631,0,0,0
261176347,100083,30.22,0,86.02,81.42,125.23,-3881.84,468.75,-317.87,0,0.12,-0.06,636,631,0,0,0
262196137,100089,30.24,0,85.77,81.45,125,-3859.13,465.82,-303.96,-0.12,0.06,0.12,636,631,0,0,0
263215938,100087,30.24,0,85.21,81.24,124.43,-3886.96,476.81,-355.96,-0.06,0.31,0,636,631,0,0,0
264235796,100092,30.26,0,85.56,81.4,124.81,-3864.26,484.13,-336.91,-0.06,0,0,636,631,0,0,0
265251629,100087,30.27,0,86.28,81.24,125.56,-3901.61,533.94,372.07,0.18,0.18,0,638,633,0,0,0
266267271,100088,30.27,0,84.93,81.23,124.18,-3906.01,514.89,-316.41,-0.06,0.12,-0.31,638,633,0,0,0
267287060,100086,30.29,0,85.09,81.35,124.36,-3846.68,489.26,-333.98,-0.06,0.24,0.06,638,633,0,0,0
268306888,100090,30.3,0,86.16,81.34,125.43,-3843.75,525.15,-366.94,0.06,0.06,0,638,633,0,0,0
269326691,100089,30.31,0,86.15,81.38,125.44,-3867.19,463.62,-375,0.12,0,-0.18,638,633,0,0,0
270340511,100090,30.32,0,86.01,81.31,125.27,-3856.2,469.48,-328.86,-0.31,0.12,0.06,633,636,0,0,0
271360537,100083,30.33,0,85.71,81.29,124.98,-3873.05,491.46,-369.14,-0.06,0.24,0.06,633,636,0,0,0
272380331,100089,30.34,0,85.27,81.5,124.53,-3853.27,447.51,-339.84,0.06,0.24,-0.06,633,636,0,0,0
273400198,100092,30.36,0,86.69,81.56,125.98,-3884.77,473.88,-348.63,0.12,0.06,-0.18,633,636,0,0,0
274419991,100088,30.36,0,85.12,81.31,124.4,-3854.74,532.47,-339.84,-0.31,0.06,0.24,633,636,0,0,0
275432897,100089,30.38,0,86.28,81.46,125.59,-3880.37,496.58,-320.07,-0.06,0.18,0.18,626,624,0,0,0
276451259,100090,30.38,0,84.34,81.36,123.61,-3925.78,498.05,-303.96,-0.18,0.24,0.37,626,624,0,0,0
277471067,100092,30.4,0,85.76,81.42,125.07,-3859.86,486.33,-368.41,-0.18,0.37,0.18,626,624,0,0,0
278490899,100096,30.4,0,85.51,81.22,124.81,-3868.65,528.08,-369.14,0.06,0.06,0.06,626,624,0,0,0
279510705,100093,30.41,0,85.25,81.41,124.57,-3870.85,548.58,-418.21,0.24,-0.24,-0.18,626,624,0,0,0
280522653,100093,30.42,0,85.01,81.27,124.3,-3873.78,505.37,-313.48,0,0.18,0.06,640,640,0,0,0
281541977,100090,30.43,0,86.33,81.4,125.62,-3536.87,297.36,-394.78,0,0.55,0.31,640,640,0,0,0
282561790,100092,30.44,0,84.69,81.47,123.99,-3780.76,522.22,-339.84,-0.12,0.24,0.98,640,640,0,0,0
283581633,100089,30.45,0,85.93,81.5,125.32,-3817.38,481.93,-364.01,0.12,-0.06,-0.24,640,640,0,0,0
284601434,100092,30.46,0,87.05,81.43,126.32,-3898.68,388.18,-357.42,0.67,0,-0.06,640,640,0,0,0
285612885,100084,30.47,0,86.63,81.55,125.97,-3812.26,613.77,-403.56,-0.49,0.31,0.37,624,637,0,0,0
286632695,100081,30.47,0,86.17,81.59,125.43,-3875.98,349.37,-51.27,-0.18,-0.98,-0.43,624,637,0,0,0
287652491,100083,30.49,0,84.2,82.57,124.25,-3895.02,308.35,-429.93,0.06,-0.43,-0.85,624,637,0,0,0
288672281,100088,30.49,0,88.09,82.67,127.83,-3728.03,25.63,-243.9,-15.2,-3.11,0.98,624,637,0,0,0
289696433,100087,30.5,0,89.07,82.35,128.66,-3808.59,525.88,583.74,0.73,-1.16,0.55,624,637,0,0,0
290707893,100088,30.51,0,85.54,81.44,123.53,-4417.97,1240.72,-882.57,-47.97,-7.32,1.46,636,638,0,0,0
291727697,100092,30.52,0,86.1,80.85,110.73,-3964.6,655.52,-301.76,2.38,0.61,0.18,636,638,0,0,0
292747469,100091,30.53,0,83.82,81.15,108.7,-3896.48,539.06,-191.89,1.28,-0.12,-0.49,636,638,0,0,0
293767241,100091,30.54,0,83.12,81.17,108.19,-3868.65,542.72,-190.43,1.4,0.18,-0.18,636,638,0,0,0
294790644,100085,30.55,0,82.94,81.28,108.13,-3805.66,588.13,-131.84,0,-0.06,0,636,638,0,0,0
295797509,100090,30.56,0,83.82,81.19,109.25,-3861.33,569.82,-191.16,-0.92,0.12,0.24,639,636,0,0,0
296817329,100088,30.57,0,83.38,81.28,108.98,-3788.82,550.05,-229.98,-0.12,0.18,0.06,639,636,0,0,0
297837112,100089,30.58,0,82.62,81.25,108.22,-3875.24,612.3,-192.63,0.18,0.12,0.18,639,636,0,0,0
298856939,100089,30.58,0,83.12,81.16,108.72,-3873.78,594.73,-259.28,0,0.06,0.06,639,636,0,0,0
299876795,100092,30.6,0,83.89,81.27,109.48,-3861.33,516.36,-188.96,0.18,0.12,-0.12,639,636,0,0,0
300888814,100091,30.61,0,83.05,81.07,108.63,-3834.23,591.06,-201.42,-0.24,0.31,-0.06,638,641,0,0,0
301908623,100088,30.61,0,82.81,81.25,107.76,-3881.1,544.19,-134.77,-0.73,0.06,0.06,638,641,0,0,0
302928424,100090,30.63,0,81.63,81.36,107.03,-3842.29,569.82,-201.42,-0.37,0.06,0,638,641,0,0,0
303948233,100090,30.63,0,83.41,81.18,108.92,-3881.84,558.11,-173.58,0.18,0.12,-0.06,638,641,0,0,0
304968063,100089,30.64,0,83.97,81.27,110.39,-3864.26,580.08,-223.39,0.24,0.12,-0.12,638,641,0,0,0
305979558,100087,30.65,0,82.88,81.17,109.31,-3853.27,603.52,-210.21,-0.18,0.12,0.12,633,636,0,0,0
307002588,100082,30.65,0,82.69,81.17,109.1,-3820.31,649.66,-193.36,0,0.18,-0.12,633,636,0,0,0
308022404,100088,30.67,0,85.05,81.29,111.5,-3900.15,571.29,-252.69,0.24,0.12,-0.12,633,636,0,0,0
309042189,100090,30.67,0,83.79,81.25,110.62,-3910.4,409.42,-139.89,-2.38,-0.18,-0.06,633,636,0,0,0
310062003,100090,30.69,0,85.8,81.76,111.61,-3757.32,627.69,-563.96,3.48,-0.55,-0.18,624,633,0,0,0
311073445,100096,30.69,0,83.28,80.98,102.25,-3808.59,937.5,-195.56,-23.86,0.43,-2.5,624,633,0,0,0
312093236,100081,30.7,0,84.89,81.77,106,-4001.22,848.88,-82.03,23.13,-0.85,0.67,624,633,0,0,0
313113034,100089,30.71,0,80.3,81.28,100.27,-3796.14,260.01,-53.47,-10.56,0.85,0.06,624,633,0,0,0
314132863,100084,30.71,0,79.71,83.37,105.38,-3922.12,351.56,-443.85,11.66,0.49,-2.38,624,633,0,0,0
315151679,100087,30.72,0,83.67,85.35,117.49,-3906.74,475.34,-410.89,13.31,-1.59,-0.06,640,635,0,0,0
316167552,100086,30.73,0,87.13,86.39,122.06,-2601.56,415.28,-2285.89,-8.36,-10.68,-3.05,640,635,0,0,0
317191564,100087,30.74,0,97.41,85.37,127.88,-3815.19,216.06,-335.45,0.55,0.98,-0.37,640,635,0,0,0
318211349,100090,30.75,0,109.28,85.02,139.95,-3883.3,197.02,-223.39,-0.92,-0.79,1.22,640,635,0,0,0
319231133,100093,30.75,0,126.2,85.35,177.29,-3976.32,-76.17,-410.89,-4.15,-2.14,-5,640,635,0,0,0
320246934,100090,30.76,0,198.07,83.51,-110.62,-3925.05,-528.81,-235.11,2.5,0,-0.98,634,632,0,0,0
321261377,100083,30.76,0,186.77,87.34,-94.73,-3887.7,-518.55,162.6,-15.38,0.37,0.24,634,632,0,0,0
322281166,100086,30.75,0,179.84,87.04,-103.24,-4016.6,-166.99,-320.8,-10.25,1.59,1.89,634,632,0,0,0
323302189,100030,30.78,0,192.37,87.06,-81.19,-5198,276.86,974.12,-29.85,-3.72,0.85,634,632,0,0,0
324320832,100085,30.78,0,156.37,85.85,-119.17,-3949.95,-240.97,-291.5,5.68,0.31,1.22,634,632,0,0,0
325336660,100085,30.79,0,139.17,86.35,-136.73,-3947.75,-134.03,-194.09,11.05,3.3,3.85,635,628,0,0,0
326352101,100084,30.8,0,127.24,86.89,-147.01,-3956.54,-186.77,-156.01,7.26,-0.67,2.08,635,628,0,0,0
327371887,100093,30.8,0,134.71,89.8,-138.26,-3938.23,-245.36,45.41,-2.81,-3.42,-2.14,635,628,0,0,0
328391704,100089,30.81,0,182.62,85.07,-64.88,-3789.55,-1116.21,-777.83,115.84,-0.49,-2.44,635,628,0,0,0
329411521,100092,30.82,0,170.45,87.87,16.71,-3928.71,-62.99,73.24,-21.3,1.1,-6.47,635,628,0,0,0
330425344,100088,30.83,0,79.17,83.7,-80.12,-3923.58,-438.72,73.24,0,0.31,-0.37,633,628,0,0,0
331442794,100090,30.84,0,73.97,84.63,-82.17,-3859.13,-341.31,22.71,23.99,0.12,0.55,633,628,0,0,0
332462624,100091,30.84,0,32.38,83.75,-90.77,-3846.68,-631.35,-167.72,-12.82,-0.12,-1.34,633,628,0,0,0
333482363,100084,30.85,0,68.48,83.11,-60.02,-3924.32,-429.93,322.27,-14.65,0.73,0,633,628,0,0,0
334502172,100090,30.86,0,43.11,84.68,-87.28,-3932.37,-378.66,-52.73,0.92,1.04,1.59,633,628,0,0,0
335518590,100090,30.87,0,63.41,85.16,-66.96,-3927.25,-297.36,141.36,-0.06,-0.18,0,638,639,0,0,0
336537921,100090,30.88,0,58.07,85.14,-72.39,-3955.08,-332.52,117.92,-0.55,-0.55,0.43,638,639,0,0,0
337557774,100089,30.88,0,58.98,85.07,-71.72,-3925.05,-335.45,150.88,-0.31,0.18,-0.18,638,639,0,0,0
338577569,100090,30.89,0,62.15,85.17,-68.54,-3970.46,-322.27,145.02,0.12,-0.43,0.67,638,639,0,0,0
339597353,100092,30.89,0,73.04,81.68,-58.08,-3927.98,-503.17,385.99,-4.58,2.93,0.49,638,639,0,0,0
340608881,100090,30.9,0,54.22,84.57,-76.97,-3918.46,-454.83,119.38,3.48,1.4,-0.12,642,638,0,0,0
341628681,100089,30.91,0,50.85,85,-80.68,-3933.11,-286.38,35.16,-0.61,0.37,0.24,642,638,0,0,0
342648496,100081,30.92,0,65,85.9,-66.54,-3952.88,-218.26,130.37,-0.92,-0.18,1.22,642,638,0,0,0
343668309,100111,30.92,0,57.78,85.91,-73.9,-4064.94,-354.49,52.73,-1.53,0.73,0.92,642,638,0,0,0
344688104,100096,30.9,0,57.46,86.1,-75.77,-3933.11,-278.32,124.51,0.67,-0.49,0.18,642,638,0,0,0
345698589,100089,30.92,0,54.68,86.52,-78.4,-3969.73,-250.49,57.13,0.24,-0.43,0.06,636,638,0,0,0
346718398,100089,30.93,0,56.18,86.07,-76.73,-3966.8,-276.86,62.99,0.12,0.31,-0.12,636,638,0,0,0
347738240,100094,30.94,0,53.05,86.38,-79.94,-3848.88,-249.02,24.17,-0.06,-1.04,0.37,636,638,0,0,0
348758031,100085,30.94,0,43.93,85.72,-88.99,-3941.89,-327.39,-26.37,0.18,-0.73,0.31,636,638,0,0,0
349777870,100086,30.95,0,246.77,84.28,-26.21,-4031.98,-425.54,418.95,-13.31,-1.77,-4.15,636,638,0,0,0
350789356,100094,30.96,0,136.94,83.3,-133.57,-3917.72,-388.18,-337.65,-1.46,-0.12,-0.24,639,634,0,0,0
351809134,100087,30.97,0,161.46,85.23,-110.34,-3935.3,-324.46,-202.15,0.43,-0.31,0.85,639,634,0,0,0
352832647,100084,30.97,0,165,85.58,-106.64,-3917.72,-290.04,-79.83,1.28,-1.1,0.49,639,634,0,0,0
353852449,100081,30.99,0,172.74,85.29,-97.57,-4053.22,348.63,-782.23,-8.48,-0.61,-2.5,639,634,0,0,0
354872667,100083,30.99,0,258.06,88.32,109.31,-3919.19,-24.17,-243.9,17.03,-0.49,-7.02,639,634,0,0,0
355883678,100093,31.01,0,47.92,87.37,-95.92,-3955.81,-160.4,-53.47,2.08,-0.18,0.43,639,638,0,0,0
356903699,100082,31.01,0,27.89,87.11,-116.99,-3925.05,-147.22,-181.64,0.31,1.1,0.92,639,638,0,0,0
357923249,100088,31.02,0,13.44,85.48,-143.49,-3829.1,71.04,-476.07,-79.59,-2.87,-3.97,639,638,0,0,0
358944705,100085,31.02,0,72.42,86.13,-127.84,-3995.36,-1808.35,494.38,-154.3,-0.85,-9.95,639,638,0,0,0
359962864,100078,31.03,0,138.93,89.42,-138.72,-3310.55,-279.79,120.85,-20.57,7.51,-7.87,639,638,0,0,0
360974377,100085,31.03,0,135.8,87.02,-152.47,-4031.25,104.74,-265.14,35.52,-3.3,-1.16,648,637,0,0,0
361994133,100085,31.04,0,168.88,87.34,-135.92,-3878.17,-120.12,-144.29,3.85,-1.59,-3.54,648,637,0,0,0
363013935,100087,31.05,0,208.19,85.27,-95.97,-3923.58,-292.97,-14.65,0.43,-0.06,0.06,648,637,0,0,0
364033741,100084,31.05,0,210.81,85.39,-93.14,-3921.39,-328.12,16.85,-1.34,-0.06,1.04,648,637,0,0,0
365053524,100083,31.06,0,199.1,87.02,-111.96,-3956.54,-336.18,-86.43,-1.46,-0.06,0.55,633,634,0,0,0
366064952,100094,31.07,0,207.58,87.11,-103.86,-3843.02,-318.6,-64.45,-28.44,0.24,1.1,633,634,0,0,0
367084758,100084,31.07,0,207.27,86.28,-104.93,-3910.4,-136.96,76.9,4.82,-0.18,-2.14,633,634,0,0,0
368104550,100086,31.08,0,205.78,85.45,-105.51,-3936.04,-391.85,-69.58,0.24,-0.55,0.31,633,634,0,0,0
369124320,100083,31.09,0,213.68,85.38,-96.75,-3954.35,-283.45,-52,-0.98,1.46,0.24,633,634,0,0,0
370143076,100086,31.09,0,200.72,86.96,-110.08,-3963.87,-185.3,36.62,0.24,0.12,0.18,636,631,0,0,0
371158588,100085,31.1,0,196.75,87.85,-115.46,-3948.49,-140.62,2.2,6.29,-0.43,-1.16,636,631,0,0,0
372178416,100086,31.1,0,200.92,87.27,-113.96,-4001.22,-172.12,-67.38,-7.63,-0.49,1.28,636,631,0,0,0
373198221,100092,31.11,0,210.8,87.22,-105.72,-3968.99,-31.49,-99.61,7.02,-0.73,-0.37,636,631,0,0,0
374217971,100090,31.12,0,214.83,86.06,-103.32,-3895.75,-377.93,-166.99,-6.1,1.04,-0.85,636,631,0,0,0
375235778,100081,31.13,0,219.15,85.77,-95.61,-4041.5,-225.59,-4.39,2.87,1.1,0.37,636,640,0,0,0
376249232,100081,31.14,0,215.68,86.26,-98.85,-3872.31,1.46,-171.39,11.35,1.83,-0.92,636,640,0,0,0
377269009,100081,31.14,0,228.76,85.01,-90.21,-4155.03,-280.52,20.51,3.36,-0.67,-1.59,636,640,0,0,0
378288855,100088,31.15,0,226.56,84.46,-93.16,-3911.87,-449.71,-23.44,-0.24,-0.49,0.55,636,640,0,0,0
379308651,100083,31.15,0,233.05,85.69,-85.84,-3912.6,-81.3,-35.16,-5.43,-2.2,-0.31,636,640,0,0,0
380324511,100084,31.16,0,256.33,85,-62.92,-3910.4,-271,385.25,0.06,1.04,1.65,636,640,0,0,0
381339922,100088,31.18,0,263.35,85.1,-54.76,-3966.8,-340.58,128.17,0.12,2.93,-1.04,636,640,0,0,0
382359783,100090,31.18,0,252.98,83.99,-64.98,-3943.36,-714.84,358.89,5.07,5.62,0.98,636,640,0,0,0
383379605,100084,31.18,0,236.58,86.12,-79.38,-3948.49,-241.7,60.06,-0.24,2.26,1.59,636,640,0,0,0
384399412,100086,31.19,0,77.97,88.25,121.13,-3628.42,458.5,-247.56,-1.83,-1.65,1.95,636,640,0,0,0
385413250,100086,31.2,0,87.51,87.21,134.62,-3728.03,429.93,-78.37,13.61,2.44,4.76,636,636,0,0,0
386430705,100007,31.2,0,90.53,87.52,140.8,-4229.74,857.67,-484.86,-18.86,-1.1,-0.49,636,636,0,0,0
387450856,100085,31.21,0,103.9,88.2,155.39,-3909.67,8.06,-47.61,-0.12,0.92,0.92,636,636,0,0,0
388470261,100085,31.23,0,105.65,88.34,156.88,-4371.83,1762.94,-1267.82,5.19,-0.67,-0.06,636,636,0,0,0
389494469,100082,31.23,0,114.72,88.73,165.62,-4057.62,344.24,-826.17,-5.49,-0.06,-1.4,636,636,0,0,0
390506405,100088,31.24,0,132.76,88.4,-176.3,-4006.35,976.32,-1538.82,-3.6,-1.95,-0.31,641,634,0,0,0
391525729,100084,31.24,0,110.35,88.23,160.68,-3932.37,233.64,-200.68,0.55,2.2,1.83,641,634,0,0,0
392545526,100082,31.25,0,136.79,88.75,-172.33,-4056.15,184.57,-281.98,3.05,-0.12,1.83,641,634,0,0,0
393565323,100085,31.26,0,161.3,87.96,-145.83,-3930.18,-154.54,-139.16,-0.73,0.92,-0.61,641,634,0,0,0
394585099,100081,31.27,0,149.67,88.81,-159.2,-3900.15,-165.53,-54.93,-2.56,0.31,0.98,641,634,0,0,0
395595495,100084,31.27,0,142.14,89.73,-166.29,-3916.99,-38.09,-38.82,0.24,-0.98,-0.06,636,643,0,0,0
396615286,100087,31.27,0,151.62,89.79,-156.78,-3932.37,54.2,120.85,0.43,0.31,0.06,636,643,0,0,0
397635086,100086,31.28,0,126.17,88.3,178.13,-3922.12,4.39,-155.27,0.43,-0.31,0.24,636,643,0,0,0
398654872,100088,31.28,0,155.33,88.48,-153.29,-3930.18,-87.16,-175.78,1.16,0,0.55,636,643,0,0,0
399674662,100087,31.3,0,127.04,88.38,178.64,-3917.72,33.69,-99.61,0,-0.49,-0.31,636,643,0,0,0
400686127,100091,31.3,0,125.58,88.66,176.23,-3895.02,41.75,-163.33,-1.46,1.04,0.61,627,629,0,0,0
401705945,100093,31.31,0,138.34,89.22,-172.4,-3933.11,-66.65,-121.58,-4.52,0.37,-0.49,627,629,0,0,0
402725795,100090,31.31,0,167.49,88.92,-143.69,-3943.36,-59.33,-81.3,-1.16,0.06,0.06,627,629,0,0,0
403745579,100086,31.31,0,171,89.74,-140.09,-3982.91,-65.92,-79.83,-0.18,-0.06,-0.24,627,629,0,0,0
404765361,100091,31.32,0,178.44,89.27,-132.61,-3929.44,-106.2,-53.47,2.32,0.18,-0.06,627,629,0,0,0
405776806,100078,31.33,0,177.63,89.11,-133.24,-3958.01,-5.86,-68.12,0.79,0.18,0.06,636,631,0,0,0
406796564,100082,31.33,0,143.4,89.28,-164.15,-4004.88,-14.65,-36.62,-2.38,-0.24,0.12,636,631,0,0,0
407820402,100089,31.33,0,145.9,88.81,-160.53,-3904.54,-69.58,-134.03,-1.34,0.31,-0.24,636,631,0,0,0
408841649,100088,31.34,0,139.49,89.89,-167.22,-3944.09,1.46,-164.06,1.59,-1.71,0.55,636,631,0,0,0
409859913,100080,31.34,0,188.19,89.87,-120.36,-3952.15,-48.34,-16.11,-1.04,-0.12,0.37,636,631,0,0,0
410872649,100086,31.35,0,222.28,89.41,-86.26,-3938.96,-112.79,-38.09,-0.92,-0.55,-1.65,637,634,0,0,0
411891095,100081,31.36,0,238.01,87.8,-69.78,-3988.04,-157.47,55.66,0.73,2.26,1.1,637,634,0,0,0
412913666,100088,31.36,0,227.55,87.57,-80.29,-3913.33,-170.65,-56.4,-2.01,0.61,0.67,637,634,0,0,0
413930729,100080,31.37,0,220.4,87.67,-87.42,-3977.05,-243.9,131.84,-1.22,0,0.37,637,634,0,0,0
414950543,100088,31.39,0,226.39,89.25,-81.67,-3973.39,-120.85,11.72,1.1,1.34,1.71,637,634,0,0,0
415961971,100085,31.39,0,207.84,89.72,-100.22,-3938.23,-74.71,-32.23,-0.06,0.31,-0.06,641,634,0,0,0
416981759,100085,31.39,0,99.03,88.19,152.76,-3966.06,60.79,-174.32,-0.49,4.7,1.22,641,634,0,0,0
418001558,100080,31.4,0,276.68,86.28,-170.29,-4012.94,-294.43,-287.84,-18.98,-4.33,9.03,641,634,0,0,0
419021335,100076,31.4,0,24.88,85.33,-55.55,-3881.84,-325.2,222.66,-0.06,-0.73,-3.6,641,634,0,0,0
420041129,100084,31.41,0,26.21,86.56,-60.81,-3957.28,-325.93,232.18,-16.36,3.48,0.12,641,634,0,0,0
421051563,100086,31.42,0,5.39,87.05,-77.44,-4114.75,-555.91,420.41,17.33,4.76,1.89,637,637,0,0,0
422071389,100082,31.42,0,268.26,80.9,-41.58,-4224.61,-1388.67,-180.18,-4.46,11.96,10.8,637,637,0,0,0
423091189,100086,31.43,0,224.94,85.36,-82.29,-4646.48,-290.04,186.77,23.74,-1.4,0.24,637,637,0,0,0
424110979,100075,31.44,0,179.77,86.8,-130.87,-3919.19,92.29,-123.05,4.7,1.1,-4.39,637,637,0,0,0
425135585,100073,31.44,0,204.71,84.47,-105.55,-3984.38,-709.72,769.04,1.4,1.22,-2.44,641,643,0,0,0
426147051,100086,31.46,0,264.68,86.45,-45.01,-3929.44,-362.55,251.22,-5.8,-1.28,0.18,641,643,0,0,0
427166880,100075,31.45,0,285.85,87.71,-29.53,-3930.18,-73.97,273.93,-21.42,0.98,2.44,641,643,0,0,0
428186659,100078,31.46,0,291.03,89.91,-25.69,-3918.46,-41.02,77.64,-0.92,0.31,1.16,641,643,0,0,0
429206418,100085,31.46,0,341.13,88.91,25.04,-3953.61,73.97,183.11,-1.46,-0.49,0.49,641,643,0,0,0
430224180,100085,31.47,0,339.48,87.7,23.59,-3941.89,125.98,369.87,-0.31,-0.49,-0.49,638,636,0,0,0
431237634,100079,31.48,0,296.1,87.49,-19.46,-3908.2,-70.31,141.36,0.79,0.92,-3.42,638,636,0,0,0
432257447,100087,31.49,0,273.86,85.27,-40.27,-3949.22,-199.22,260.01,4.58,-1.28,-0.37,638,636,0,0,0
433277227,100089,31.49,0,269.34,84.02,-44.39,-3932.37,-297.36,358.15,-2.2,1.1,-0.61,638,636,0,0,0
434297039,100081,31.49,0,257.46,84.58,-56.41,-3938.96,-314.94,237.3,-0.24,0.18,-0.12,638,636,0,0,0
435312849,100080,31.5,0,258.14,84.64,-56.22,-3968.99,-320.07,481.93,0.37,-0.24,-0.18,636,637,0,0,0
436328321,100077,31.5,0,260.12,84.02,-54.43,-3920.65,-403.56,177.25,-1.53,0.55,-0.85,636,637,0,0,0
437348131,100079,31.51,0,263.13,84.14,-51.73,-3933.11,-333.25,256.35,0.18,-0.12,0,636,637,0,0,0
438367934,100080,31.52,0,264.98,83.56,-49.85,-3917.72,-327.39,356.69,-0.24,-0.31,-0.31,636,637,0,0,0
439387750,100082,31.52,0,263.54,83.31,-51.76,-3925.05,-392.58,295.9,-1.22,0,-0.85,636,637,0,0,0
440401668,100083,31.53,0,256.27,83.55,-59.28,-3931.64,-430.66,186.77,-0.43,0.73,0.06,635,636,0,0,0
441419018,100083,31.53,0,242.96,83.72,-74.07,-3956.54,-457.03,40.28,-0.73,0.98,0.31,635,636,0,0,0
442438868,100079,31.54,0,245.74,84.12,-71.84,-3927.25,-375,167.72,-2.5,-0.92,0,635,636,0,0,0
443462529,100085,31.54,0,249.61,84.22,-69.11,-3912.6,-369.14,165.53,-0.06,0.18,0,635,636,0,0,0
444482329,100085,31.55,0,252.55,84.11,-66.2,-3921.39,-323,150.15,0,-0.12,0,635,636,0,0,0
445494232,100081,31.55,0,252.08,83.95,-66.73,-3940.43,-367.68,172.85,0.06,0.37,-0.12,638,631,0,0,0
446512604,100079,31.56,0,246.05,83.7,-72.81,-3938.23,-452.64,157.47,-0.85,-0.37,-0.06,638,631,0,0,0
447532370,100084,31.57,0,255.9,84.02,-62.97,-3906.01,-369.14,179.44,0,-0.12,0.67,638,631,0,0,0
448552206,100081,31.57,0,254.06,84.66,-64.68,-3918.46,-355.96,161.87,-0.18,0.67,0.12,638,631,0,0,0
449571969,100074,31.58,0,250.54,84.87,-68.23,-3933.84,-350.1,112.06,-0.12,0.49,0.24,638,631,0,0,0
450583444,100078,31.58,0,247.22,84.7,-71.4,-3951.42,-387.45,148.68,-0.18,-0.12,-0.24,646,638,0,0,0
451603241,100082,31.59,0,250.98,84.44,-67.55,-3931.64,-374.27,164.79,-0.12,0.06,0,646,638,0,0,0
452623046,100077,31.58,0,253.77,84.32,-64.72,-3938.96,-323.73,177.98,0.43,0.31,0,646,638,0,0,0
453642889,100076,31.6,0,249.12,84.03,-69.38,-3924.32,-414.55,147.95,0,0,-0.67,646,638,0,0,0
454662753,100079,31.6,0,246.68,84.88,-71.41,-3919.19,-402.83,96.68,0.92,0.79,2.93,646,638,0,0,0
455674199,100081,31.6,0,252.78,87.8,-66.25,-3939.7,-144.29,82.76,-0.49,-1.16,0.37,639,637,0,0,0
456693988,100080,31.61,0,293.04,86.69,-29.73,-3947.02,-183.11,212.4,-0.55,0.49,1.4,639,637,0,0,0
457713782,100085,31.62,0,282.18,86.88,-39.97,-3906.74,-136.96,189.7,1.59,-0.24,-5.98,639,637,0,0,0
458733579,100086,31.63,0,169.89,86.48,-149.93,-3957.28,-39.55,-511.23,-1.89,3.11,10.13,639,637,0,0,0
459753318,100079,31.63,0,182.87,86.85,-138.67,-3994.63,-271.73,43.21,-27.95,3.66,-2.26,639,637,0,0,0
460764807,100084,31.65,0,164.37,87.42,-158.99,-3923.58,-70.31,-227.78,1.34,1.95,3.17,636,638,0,0,0
461788401,100082,31.65,0,140.41,89.74,177.33,-3895.02,-19.04,113.53,-2.87,-6.9,-5.92,636,638,0,0,0
462808244,100078,31.66,0,196.15,85.36,-126.62,-3934.57,-283.45,-375,0.24,1.22,-1.16,636,638,0,0,0
463828056,100082,31.66,0,224.98,86.45,-98.45,-3960.21,-298.83,-46.88,0.37,-2.81,0.43,636,638,0,0,0
464847884,100090,31.66,0,263.72,86.76,-60.15,-3921.39,-232.18,89.36,0.06,0.43,0.12,636,638,0,0,0
465859370,100088,31.67,0,256.43,86.39,-68.09,-3944.82,-222.66,53.47,0.12,-1.46,0.92,636,635,0,0,0
466882640,100086,31.67,0,274.05,86.64,-50.53,-3937.5,-208.74,158.2,-0.37,0.43,-0.18,636,635,0,0,0
467899806,100089,31.68,0,265.01,86.49,-59.41,-3934.57,-212.4,130.37,0.12,0.31,-0.49,636,635,0,0,0
468919622,100086,31.68,0,266.48,86.57,-57.97,-3932.37,-182.37,93.02,0.24,-0.12,-0.06,636,635,0,0,0
469939412,100077,31.69,0,263.58,86.32,-60.87,-3930.18,-252.69,140.62,-0.31,0.37,-0.31,636,635,0,0,0
470949897,100085,31.7,0,265.44,86.54,-59.05,-3922.85,-227.78,98.88,-0.73,0.37,-0.24,646,631,0,0,0
471969721,100087,31.7,0,264.85,86.01,-59.44,-3919.92,-211.67,113.53,-1.89,2.14,-0.31,646,631,0,0,0
472989542,100085,31.7,0,259.32,83.43,-64.38,-3924.32,-534.67,240.97,1.65,0.85,-1.83,646,631,0,0,0
474009335,100084,31.71,0,237.53,83.41,-86.04,-3941.16,-445.31,67.38,1.89,0.37,3.91,646,631,0,0,0
475029156,100081,31.71,0,247.26,82.95,-76.68,-3926.51,-550.05,71.78,0.61,3.42,0.61,646,631,0,0,0
476040635,100085,31.71,0,246.61,83.1,-77.93,-3937.5,-459.23,90.09,-0.67,-0.06,-0.24,643,640,0,0,0
477060435,100080,31.71,0,243.32,84.27,-81.29,-3925.05,-427.73,63.72,-0.61,-0.43,0.49,643,640,0,0,0
478080242,100083,31.72,0,246.61,82.58,-77.96,-3914.79,-586.67,251.95,-1.04,0.43,0.61,643,640,0,0,0
479103608,100084,31.72,0,228.13,84.05,-96.56,-3916.99,-380.13,-16.85,0.55,-1.4,0.31,643,640,0,0,0
480123420,100077,31.73,0,222.15,84.21,-102.4,-3893.55,-415.28,-498.78,0.24,-0.98,-0.49,642,638,0,0,0
481134887,100078,31.74,0,234,83.72,-90.68,-3941.89,-454.83,14.65,-0.06,-0.73,0.31,642,638,0,0,0
482154724,100079,31.74,0,247.71,83.72,-77.95,-3927.25,-420.41,-2.93,-2.44,1.71,-0.61,642,638,0,0,0
483174548,100086,31.74,0,242.3,83.46,-86.35,-3886.96,-531.74,139.16,-0.24,-1.34,-0.31,642,638,0,0,0
484194348,100082,31.75,0,245.27,83.68,-84.32,-3892.09,-453.37,154.54,-0.18,-0.98,-0.49,642,638,0,0,0
485212160,100085,31.76,0,248.26,83.64,-81.6,-3843.75,-463.62,-549.32,0.43,-0.12,-0.37,643,640,0,0,0
486225611,100079,31.76,0,249.31,83.69,-80.62,-3952.88,-399.17,171.39,0.37,-0.79,0.18,643,640,0,0,0
487245412,100086,31.76,0,247.08,84.09,-82.97,-3914.79,-425.54,32.23,0.18,-0.06,-0.31,643,640,0,0,0
488265200,100081,31.77,0,251.73,83.63,-78.34,-3919.92,-506.84,180.91,-0.55,0.31,-0.18,643,640,0,0,0
489285004,100086,31.77,0,249.23,83.93,-80.92,-3988.04,-358.89,-76.17,0.85,-0.06,-0.24,643,640,0,0,0
490300838,100082,31.77,0,248.72,83.48,-81.47,-3987.3,-497.31,758.06,-0.12,-0.12,0.06,641,632,0,0,0
491316936,100085,31.78,0,249.46,83.54,-80.74,-3939.7,-429.93,71.04,0.12,0.06,0.06,641,632,0,0,0
492336812,100086,31.79,0,248.88,83.47,-81.27,-3919.92,-487.06,98.88,0.24,-0.37,0.55,641,632,0,0,0
493356634,100084,31.79,0,249.34,83.3,-80.89,-3916.26,-485.6,56.4,-0.61,0,-0.12,641,632,0,0,0
494376449,100081,31.79,0,247.67,83.79,-82.78,-3952.88,-459.96,29.3,-0.37,-0.43,-0.18,641,632,0,0,0
495391287,100085,31.79,0,251.57,83.05,-77.49,-3889.89,-430.66,131.84,6.53,-3.05,-3.97,639,637,0,0,0
496406747,100084,31.8,0,276.62,78.36,172.55,-7011.47,-1040.77,-1573.24,-62.56,-12.08,2.87,639,637,0,0,0
497429549,100084,31.81,0,277.43,84.56,172.85,-3965.33,2.2,-420.41,-0.31,0.12,-0.24,639,637,0,0,0
498449335,100084,31.81,0,296.59,85.42,-168.47,-3930.91,-78.37,-278.32,0.85,-0.31,-0.79,639,637,0,0,0
499469157,100087,31.82,0,295.5,85.33,-169.79,-3922.85,-78.37,-303.96,-0.06,-0.06,0.18,639,637,0,0,0
500482045,100081,31.83,0,303.99,85.08,-161.42,-3921.39,-111.33,-328.12,-0.61,0.67,-0.73,634,640,0,0,0
501500448,100084,31.84,0,297.1,85.23,-168.42,-3919.19,-34.42,-295.17,-0.12,0.37,-0.37,634,640,0,0,0
502520262,100083,31.83,0,302.96,84.69,-162.73,-3944.82,-132.57,-429.2,0.49,1.59,0.18,634,640,0,0,0
503540068,100084,31.84,0,303.81,84.73,-161.93,-3904.54,-129.64,-352.29,0.12,0.31,-0.85,634,640,0,0,0
504559896,100083,31.84,0,307.92,84.43,-158.01,-3915.53,-147.22,-364.75,0.12,0.06,-0.06,634,640,0,0,0
505571401,100086,31.84,0,311.91,83.88,-154.13,-3878.17,-240.97,-389.65,-0.31,1.65,0,634,626,0,0,0
506591154,100075,31.85,0,315.47,82.91,-150.5,-3970.46,-155.27,-409.42,0.06,0,0.12,634,626,0,0,0
507610960,100086,31.85,0,318.97,82.77,-146.87,-3913.33,-287.84,-416.75,0.31,0,-0.12,634,626,0,0,0
508630727,100083,31.85,0,312.34,82.88,-153.56,-3925.05,-174.32,-409.42,-0.24,0.06,0.24,634,626,0,0,0
509650526,100086,31.86,0,318.66,82.5,-147.23,-3951.42,-269.53,-402.83,-0.06,-0.43,0,634,626,0,0,0
510661939,100080,31.86,0,327.1,82.72,-139.05,-3886.23,-301.76,-440.92,-0.49,0.43,0.73,642,636,0,0,0
511681730,100084,31.86,0,321.82,82.78,-144.43,-3927.98,-289.31,-304.69,-0.37,-0.06,0.37,642,636,0,0,0
512701509,100081,31.88,0,321.02,82.83,-145.28,-3900.15,-301.03,-391.11,-0.06,-0.12,0.18,642,636,0,0,0
513721293,100083,31.88,0,321.52,83.08,-144.89,-3914.79,-275.39,-366.21,-0.12,0.12,0.06,642,636,0,0,0
514741029,100086,31.89,0,320.88,82.91,-145.49,-3955.81,-310.55,-409.42,-0.31,-0.37,0.06,642,636,0,0,0
515757094,100082,31.88,0,318.7,83.15,-147.74,-3946.29,-252.69,-427.73,-0.06,0.37,0.24,640,635,0,0,0
516776888,100079,31.89,0,318.87,82.94,-147.57,-3945.56,-277.59,-429.93,-0.18,0.12,-0.31,640,635,0,0,0
517796719,100082,31.89,0,319.23,83.34,-147.16,-3897.22,-265.87,-365.48,0.24,0,-0.49,640,635,0,0,0
518816508,100082,31.9,0,318.84,83.01,-147.61,-3935.3,-255.62,-372.8,-0.85,-0.73,-0.49,640,635,0,0,0
519836300,100088,31.91,0,320.01,83.07,-148.55,-3935.3,-254.15,-396.97,-0.49,-0.12,0.85,640,635,0,0,0
520846760,100081,31.91,0,312.01,82.82,-156.96,-3906.01,-152.34,-612.3,0.79,-0.43,-1.46,638,642,0,0,0
521866566,100078,31.91,0,288.46,84.62,179.35,-3943.36,56.4,-344.24,-9.09,-5.37,7.69,638,642,0,0,0
522886371,100074,31.91,0,260.16,79.96,146.87,-3862.06,409.42,-643.07,-1.28,4.46,-0.43,638,642,0,0,0
523906148,100076,31.91,0,233.15,83.01,139.12,-4097.17,238.04,-480.47,61.22,-8.73,8.79,638,642,0,0,0
524925945,100074,31.92,0,179.92,69.86,117.69,-3583.01,1366.7,-723.63,-0.12,6.65,21.61,638,642,0,0,0
525937394,100077,31.93,0,132.91,64.22,96.05,-3516.36,1543.21,-214.6,11.35,-12.63,27.22,638,636,0,0,0
526957233,100080,31.92,0,99.22,45.89,80.37,-2950.2,2659.42,505.37,9.28,-14.16,10.8,638,636,0,0,0
527977055,100077,31.93,0,113.63,39.11,86.98,-2036.87,2827.15,-273.93,38.09,24.78,-5.55,638,636,0,0,0
528996876,100077,31.93,0,121.44,31.54,120.99,-1660.4,2493.9,-1872.07,-15.38,7.51,10.99,638,636,0,0,0
530016654,100077,31.93,0,116.84,25.44,139.33,-1417.97,2318.85,-2761.96,7.57,-2.44,0.12,638,636,0,0,0
531028046,100079,31.95,0,91.39,23.03,142.82,-1690.43,2374.51,-3064.45,70.07,-19.9,32.84,640,638,0,0,0
532047868,100080,31.95,0,59.14,0.34,179.82,370.61,52,-4234.13,30.94,17.21,5.92,640,638,0,0,0
533071617,100087,31.96,0,68.58,0.92,-152.23,89.36,-1948.24,-3585.94,14.28,3.6,-10.68,640,638,0,0,0
534091417,100080,31.97,0,71.27,-0.26,-164.15,-80.57,-1159.42,-3921.39,4.46,0.06,-0.06,640,638,0,0,0
535111229,100089,31.99,0,71.78,0.17,-166.77,-16.85,-942.63,-4255.37,15.32,0.31,0,647,637,0,0,0
536122643,100081,32,0,71.76,0.05,-164.14,8.06,-1068.6,-3903.08,-16.17,-0.12,-0.18,647,637,0,0,0
537142452,100079,32,0,71.71,0.13,-163.98,3.66,-422.61,-4161.62,-8.91,0.37,-0.12,647,637,0,0,0
538162261,100088,32.01,0,71.77,-0.04,-162.1,24.17,-1250.24,-3856.2,2.93,-0.37,-0.12,647,637,0,0,0
539182081,100086,32.01,0,71.79,0.02,-158.32,52.73,-1483.15,-3876.71,0.24,0.37,0.12,647,637,0,0,0
540199894,100085,32.03,0,71.82,0.01,-156.32,-63.72,-1562.26,-3016.11,8.18,-0.12,0.18,634,632,0,0,0
541216581,100080,32.03,0,71.79,0.03,-155.12,396.24,-1456.05,-3804.93,4.52,0.06,-0.06,634,632,0,0,0
542236297,100078,32.03,0,71.75,-0.35,-155.5,96.68,-1646.48,-3801.27,-8.42,0.37,0.06,634,632,0,0,0
543260547,100078,32.04,0,71.71,0.06,-151.92,-5.13,-1940.19,-3583.74,0.12,0.18,0.18,634,632,0,0,0
544280290,100084,32.05,0,71.7,0.07,-152.07,48.34,-1953.37,-3604.25,1.71,0.31,-0.12,634,632,0,0,0
545296011,100084,32.05,0,71.63,0.11,-152.11,19.78,-1946.04,-3878.91,0.98,0.06,0.06,641,636,0,0,0
546310390,100077,32.06,0,71.61,0.01,-151.85,2.93,-1948.97,-3599.12,-2.08,0.18,0,641,636,0,0,0
547330148,100090,32.07,0,71.56,0.11,-153.01,-50.54,-1891.11,-3648.19,16.17,-0.06,0.18,641,636,0,0,0
548349943,100102,32.07,0,72.09,-0.17,-152.07,-179.44,-2063.23,-3736.82,-3.54,0,0.24,641,636,0,0,0
549369755,100188,32.08,0,72.07,0,-151.36,-155.27,-1973.88,-3649.66,0.73,0.06,0,641,636,0,0,0
550384580,100086,32.08,0,72.04,0.28,-150.57,-46.14,-2013.43,-3581.54,3.78,0.06,-0.31,628,640,0,0,0
551400921,100082,32.09,0,71.97,0,-150.21,1.46,-2062.5,-3566.89,-0.31,0.18,-0.12,628,640,0,0,0
552420742,100082,32.1,0,71.92,0.09,-150.29,-8.06,-2031.74,-3560.3,-0.98,0,-0.18,628,640,0,0,0
553440514,100083,32.1,0,71.88,0.04,-149.3,-32.96,-2074.22,-3452.64,-10.93,0.24,-0.06,628,640,0,0,0
554460274,100082,32.1,0,71.83,-0.03,-149.42,-52,-2096.92,-3533.2,-1.89,0,-0.18,628,640,0,0,0
555473189,100083,32.11,0,71.75,0.07,-148.54,38.82,-2093.26,-3462.16,-1.4,0.55,0,635,639,0,0,0
556491423,100074,32.11,0,71.73,0.04,-147.82,53.47,-2588.38,-3318.6,-0.61,0.37,-0.12,635,639,0,0,0
557511183,100083,32.12,0,71.68,0.3,-147.32,-25.63,-2217.77,-3462.16,0.55,0,0,635,639,0,0,0
558530969,100084,32.12,0,71.65,0.32,-147.81,-65.19,-2198.73,-3494.38,-7.63,-0.12,0.18,635,639,0,0,0
559550768,100084,32.13,0,71.62,-0.01,-148.35,-6.59,-2153.32,-3483.4,4.64,0.18,0,635,639,0,0,0
560562146,100084,32.14,0,71.55,0.08,-150.78,-84.96,-1995.12,-3560.3,-16.85,0.06,0.06,634,631,0,0,0
561585482,100084,32.14,0,71.21,0.36,-147.31,13.18,-2256.59,-3351.56,35.89,0.31,-0.06,634,631,0,0,0
562605241,100081,32.14,0,71.17,-0.1,-147.1,10.99,-2258.06,-3459.96,-8,0.31,-0.06,634,631,0,0,0
563625007,100079,32.15,0,71.13,0.11,-147.88,-17.58,-2202.39,-3487.06,7.14,0.24,-0.12,634,631,0,0,0
564644813,100085,32.15,0,71.1,0.08,-146.62,-5.86,-2262.45,-3429.93,-0.92,0,-0.43,634,631,0,0,0
565656212,100087,32.15,0,71.06,0.12,-147.05,-10.25,-2244.14,-3428.47,2.32,-0.06,-0.06,638,639,0,0,0
566675914,100080,32.16,0,70.96,0.06,-146.76,2.2,-2241.21,-3424.07,-2.69,0.18,0.06,638,639,0,0,0
567695666,100077,32.16,0,70.91,-0.02,-146.62,-4.39,-2278.56,-3441.65,-0.24,0.06,0.06,638,639,0,0,0
568715417,100073,32.17,0,70.88,0.07,-146.16,-24.17,-2279.3,-3414.55,-0.24,0.12,0,638,639,0,0,0
569735172,100083,32.18,0,70.82,0.1,-146.76,-10.99,-2282.23,-3469.48,0.49,0,-0.12,638,639,0,0,0
570745549,100078,32.18,0,70.81,0.01,-146.04,4.39,-2277.1,-3416.02,-0.37,0.12,-0.12,638,640,0,0,0
571765317,100080,32.19,0,70.74,-0.01,-146.44,16.85,-2264.65,-3427,-0.18,0.12,0.12,638,640,0,0,0
572785105,100078,32.19,0,70.7,0.04,-146.4,-5.13,-2241.94,-3390.38,1.04,0.12,-0.06,638,640,0,0,0
573804898,100086,32.2,0,70.69,0.01,-146.35,-11.72,-2280.76,-3433.59,-1.1,0.06,0.06,638,640,0,0,0
574824670,100081,32.21,0,70.64,0,-146.21,1.46,-2280.76,-3444.58,-0.24,0.06,-0.24,638,640,0,0,0
575836055,100078,32.21,0,70.6,0.05,-146.36,0.73,-2288.82,-3402.1,2.01,0,0.12,641,632,0,0,0
576855851,100076,32.21,0,70.57,0.09,-146.74,-16.85,-2249.27,-3440.19,0,0.12,-0.12,641,632,0,0,0
577875642,100078,32.21,0,70.55,-0.05,-146.65,16.85,-2255.86,-3438.72,-0.06,0,-0.06,641,632,0,0,0
578895412,100085,32.22,0,70.49,0.02,-146.6,-2.2,-2269.78,-3440.92,-0.18,0,0,641,632,0,0,0
579915169,100082,32.23,0,70.44,0.07,-146.7,-24.9,-2253.66,-3446.04,-0.24,0.12,0.06,641,632,0,0,0
580926513,100085,32.23,0,70.42,0.02,-148.27,11.72,-2141.6,-3488.53,0.73,0.12,-0.06,635,636,0,0,0
581946248,100082,32.23,0,70.47,0.06,-147.7,-4.39,-2185.55,-3504.64,-12.02,0.43,0.06,635,636,0,0,0
582966660,100079,32.23,0,70.47,-0.06,-148.23,16.85,-2165.77,-3487.79,-13.31,-0.12,0.18,635,636,0,0,0
583985769,100078,32.24,0,70.43,0.04,-150.83,-5.86,-1988.53,-3579.35,3.17,-0.06,-0.06,635,636,0,0,0
585007674,100086,32.25,0,70.38,0.04,-145.6,-23.44,-2335.69,-3353.76,17.27,0.18,-0.12,635,636,0,0,0
586016904,100078,32.25,0,70.34,0.02,-142.17,-1.46,-2529.05,-3214.6,1.53,0.18,0.37,640,637,0,0,0
587036709,100081,32.26,0,70.31,0.09,-142.02,-5.13,-2568.6,-3222.66,-2.38,0,-0.12,640,637,0,0,0
588056489,100082,32.26,0,70.25,0.13,-144.27,-26.37,-2428.71,-3349.37,-9.7,0.12,0,640,637,0,0,0
589076243,100077,32.26,0,70.21,0.15,-143.82,-14.65,-2422.12,-3331.79,0.55,0,0,640,637,0,0,0
590096051,100082,32.26,0,70.16,0.04,-141.39,-14.65,-2535.64,-2831.54,-3.11,0.12,0.12,646,631,0,0,0
591107464,100079,32.26,0,70.13,0.06,-143.94,-1.46,-2426.51,-3352.29,8.54,0.18,0.18,646,631,0,0,0
592127192,100083,32.28,0,70.05,0.01,-134.69,5.13,-2939.21,-2924.56,-6.65,0.06,0.31,646,631,0,0,0
593146944,100081,32.28,0,70,-0.01,-139.18,23.44,-2687.99,-3138.43,-1.1,0.12,-0.31,646,631,0,0,0
594166726,100079,32.28,0,69.94,0.21,-141.95,-32.23,-2547.36,-3237.3,1.59,0.12,0.31,646,631,0,0,0
595188628,100081,32.28,0,69.9,0.15,-141.13,38.09,-2646.24,-3889.89,4.21,-0.06,0.06,629,637,0,0,0
596201040,100081,32.28,0,69.83,0.09,-134.35,-21.24,-2930.42,-2942.14,7.87,0.06,0.06,629,637,0,0,0
597220843,100083,32.29,0,71.5,-1.79,-144.94,95.21,-2677.73,-3851.81,-41.44,-3.36,-3.23,629,637,0,0,0
598240623,100076,32.29,0,79.97,1.13,174.65,-73.97,220.46,-4013.67,-38.39,-5.49,-16.54,629,637,0,0,0
599260393,100076,32.29,0,99.24,9.1,151.71,-766.85,1838.38,-3598.39,13.73,17.52,-16.05,629,637,0,0,0
600277151,100072,32.29,0,116.15,6.21,154.47,-429.2,1659.67,-4062.74,-4.21,0.49,-4.52,636,638,0,0,0
601291549,100073,32.3,0,114.61,8.46,150.93,-590.33,2034.67,-3622.56,-25.57,-3.11,-0.55,636,638,0,0,0
602311308,100071,32.3,0,118.84,5.76,148.82,-360.35,1939.45,-3195.56,9.83,2.75,-4.33,636,638,0,0,0
603331077,100078,32.3,0,123.45,7.88,152.61,-460.69,1790.77,-3214.6,5.55,-0.92,-2.87,636,638,0,0,0
604350893,100075,32.3,0,119.32,9.17,-176.99,-580.08,-233.64,-3986.57,20.32,-0.61,4.76,636,638,0,0,0
605365734,100073,32.3,0,111.88,20.15,-164.68,-1570.31,-761.72,-3602.78,49.32,-21.24,10.68,636,631,0,0,0
606382129,100075,32.32,0,105.17,30.56,-146.53,-1983.4,-1921.87,-2732.67,32.84,11.54,0.31,636,631,0,0,0
607401895,100082,32.31,0,96.59,18.78,-152.71,-1142.58,-1905.03,-3497.31,7.87,24.48,10.62,636,631,0,0,0
608421658,100076,32.31,0,66.47,3.3,-145.66,87.16,-2331.3,-3407.23,18.8,23.25,21.85,636,631,0,0,0
609441440,100076,32.32,0,55.05,-3.02,-125.48,142.09,-3449.71,-2474.12,17.21,-4.03,-0.49,636,631,0,0,0
610456551,100074,32.32,0,55.97,-1.12,-106.44,94.48,-3996.83,-1242.92,49.26,-1.46,1.95,643,636,0,0,0
611472925,100074,32.33,0,55.68,-0.57,-87.93,35.89,-4208.5,131.84,-18.01,2.87,3.42,643,636,0,0,0
612492739,100082,32.33,0,54.93,0.69,-96.72,-92.29,-4155.76,-396.24,-57.43,1.16,0.55,643,636,0,0,0
613516529,100072,32.33,0,55.16,0.24,-102.69,-30.76,-4053.22,-829.83,-12.94,5.98,2.38,643,636,0,0,0
614536340,100078,32.32,0,53.18,0.58,-96.55,-54.2,-4188.72,-489.26,5.92,0.06,-0.31,643,636,0,0,0
615548261,100086,32.33,0,53.11,0.34,-88.99,-46.88,-4147.71,104,6.77,0.18,0.18,640,636,0,0,0
616567573,100079,32.34,0,53.03,0.43,-89.79,-82.76,-4218.02,-24.9,-0.85,-0.18,0.12,640,636,0,0,0
617587378,100085,32.34,0,52.98,0.42,-90.72,60.06,-4195.31,-47.61,6.23,-0.06,-0.24,640,636,0,0,0
618607148,100088,32.35,0,52.9,0.3,-90.18,10.99,-4166.02,-18.31,0.18,0.06,-0.12,640,636,0,0,0
619626929,100082,32.35,0,52.81,0.32,-89.9,-188.96,-4213.62,-88.62,-0.12,-0.06,0.12,640,636,0,0,0
620637372,100085,32.35,0,52.75,0.43,-89.03,-601.32,-2844.73,-799.07,-6.35,-0.06,0.06,639,636,0,0,0
621657165,100076,32.35,0,52.69,0.27,-91.52,-25.63,-4221.68,-131.84,14.4,0.06,-0.37,639,636,0,0,0
622676950,100082,32.36,0,52.62,0.35,-105.74,40.28,-4013.67,-994.63,0.67,0.85,-0.31,639,636,0,0,0
623696822,100073,32.36,0,52.59,0.32,-106.2,-37.35,-4011.47,-1090.58,2.69,0.31,-0.37,639,636,0,0,0
624716650,100084,32.36,0,52.54,0.36,-112.1,-20.51,-3879.64,-1577.64,2.32,0.24,0.06,639,636,0,0,0
625728099,100080,32.36,0,52.48,0.32,-112.21,-18.31,-3887.7,-1595.95,0.49,0.18,-0.06,634,631,0,0,0
626747900,100087,32.37,0,52.41,0.5,-111.56,-26.37,-3874.51,-1478.76,-2.01,0.06,0.24,634,631,0,0,0
627767741,100081,32.37,0,58.38,-0.07,-129.35,-652.59,-3197.02,-2608.15,-46.75,-6.71,-4.46,634,631,0,0,0
628787539,100082,32.37,0,59.12,-0.03,-121.59,142.82,-3891.36,-2739.26,-127.75,-3.36,0.43,634,631,0,0,0
629807350,100076,32.37,0,79.13,42.51,164.35,-2430.18,218.99,-2450.68,-49.38,-32.9,-29.6,634,631,0,0,0
630818859,100074,32.37,0,139.73,80.21,-148.23,-2800.05,-465.09,-465.82,-52.8,-40.59,-26.25,646,638,0,0,0
631842390,100064,32.36,0,166.74,78.79,-138.99,-2883.54,-479.74,-706.05,-17.21,-7.39,-0.06,646,638,0,0,0
632862183,100070,32.35,0,170.58,82.29,-139.45,-3963.87,-328.12,-342.04,-15.5,2.69,2.75,646,638,0,0,0
633881994,100079,32.34,0,140.7,86.38,-166.63,-3909.67,-91.55,-508.3,17.15,-3.54,4.82,646,638,0,0,0
634901853,100266,32.34,0,133.68,85.33,-167.34,-3793.95,-368.41,-16.85,-4.82,-4.15,0.98,646,638,0,0,0
635913335,100082,32.35,0,145.9,87.43,-155.13,-3960.94,-73.24,-229.98,-0.49,0.31,0.31,642,637,0,0,0
636933080,100087,32.36,0,159.63,85.5,-141.16,-3963.13,-153.81,-304.69,5.19,-3.3,-2.81,642,637,0,0,0
637952883,100080,32.36,0,177.14,87.4,-123.97,-3912.6,-528.08,-76.17,12.76,2.2,-5.13,642,637,0,0,0
638972701,100084,32.35,0,169.91,84.88,-128.81,-3930.91,-257.81,-267.33,1.71,0.55,-0.92,642,637,0,0,0
639994397,100081,32.35,0,178.29,85.53,-120.07,-3947.75,-257.81,-130.37,-0.92,-1.1,0.61,642,637,0,0,0
641004029,100077,32.34,0,164.17,86.57,-132.92,-3945.56,-178.71,-172.12,3.6,2.08,1.34,640,639,0,0,0
642023841,100069,32.34,0,149.17,85.5,-145.56,-3933.84,-182.37,-273.93,2.26,0.43,0.24,640,639,0,0,0
643043582,100077,32.35,0,111.61,88.64,-143.67,-3943.36,73.97,-93.02,13.85,-0.31,1.71,640,639,0,0,0
644063727,100075,32.34,0,127.75,81.82,-128.76,-3923.58,-500.98,-316.41,0.67,5.19,1.53,640,639,0,0,0
645083527,100073,32.34,0,82.81,80.86,-168.08,-3955.81,-146.48,-485.6,-0.24,6.41,2.87,640,639,0,0,0
646094001,100082,32.35,0,80.94,78.59,-162.85,-3864.99,-166.26,118.65,0.98,5.37,-0.85,632,630,0,0,0
647113862,100079,32.34,0,55.4,72.63,176.16,-3006.59,46.88,-896.48,-7.14,-14.34,10.74,632,630,0,0,0
648133695,100077,32.35,0,54.29,72.03,175.98,-3757.32,205.08,-1234.13,1.46,1.04,1.34,632,630,0,0,0
649157635,100074,32.34,0,54.84,72.07,176.8,-3746.34,91.55,-1226.81,-0.06,0,-0.06,632,630,0,0,0
650177433,100086,32.35,0,54.36,72.05,176.3,-3711.18,38.82,-2003.17,0,-0.18,0,641,634,0,0,0
651188893,100077,32.35,0,55,72.18,176.99,-3780.03,94.48,-1154.3,-0.06,0.18,-0.06,641,634,0,0,0
652208749,100082,32.35,0,55,72.11,177.01,-3766.85,63.72,-1218.75,-0.24,0,-0.06,641,634,0,0,0
653228562,100081,32.35,0,54.41,71.92,176.44,-3729.49,87.89,-1245.12,0.12,0.18,0.31,641,634,0,0,0
654248396,100084,32.35,0,54.46,72.17,176.5,-3755.13,73.97,-1209.96,0,0.06,0,641,634,0,0,0
655267161,100074,32.35,0,54.66,71.99,176.7,-3791.02,92.29,-501.71,-0.12,-0.06,-0.06,641,638,0,0,0
656279646,100082,32.36,0,54.7,72.25,176.79,-3774.9,85.69,-1226.07,0.12,0.24,0.06,641,638,0,0,0
657299452,100078,32.37,0,54.63,72.22,176.74,-3777.1,49.07,-1234.86,-0.06,0.18,-0.06,641,638,0,0,0
658319255,100080,32.36,0,54.81,72.13,176.95,-3762.45,52.73,-1231.2,0,0.12,0.06,641,638,0,0,0
659339062,100082,32.36,0,54.33,72.12,176.46,-3744.14,68.12,-1235.6,0.12,0.24,-0.12,641,638,0,0,0
660354860,100076,32.36,0,54.6,72.09,176.77,-3736.82,60.06,-1212.89,0.37,-0.06,0.12,643,641,0,0,0
661370329,100077,32.36,0,54.59,72.14,176.76,-3741.21,93.02,-1188.72,0,0.24,0,643,641,0,0,0
662390128,100070,32.36,0,54.61,72.15,176.82,-3748.54,80.57,-1201.17,-0.18,0.18,0.12,643,641,0,0,0
663409921,100080,32.37,0,54.8,72.11,177.03,-3750,57.13,-1190.92,-0.06,0.31,0.06,643,641,0,0,0
664429771,100077,32.37,0,54.03,72.16,176.22,-3755.86,91.55,-1210.69,0.06,0.24,0.12,643,641,0,0,0
665443671,100081,32.38,0,54.3,72.14,176.52,-3754.39,76.9,-1228.27,0.12,0.06,0.06,638,640,0,0,0
666461030,100078,32.37,0,54.6,72.1,176.85,-3767.58,65.92,-1242.92,0,0.18,0,638,640,0,0,0
667484541,100080,32.38,0,54.47,72.04,176.72,-3751.46,78.37,-1204.1,-0.12,0,-0.18,638,640,0,0,0
668504345,100075,32.38,0,54.02,72.18,176.25,-3759.52,97.41,-1203.37,0,0.12,0,638,640,0,0,0
669524143,100070,32.39,0,54.34,72.18,176.59,-3762.45,57.13,-1163.82,0,0.18,0.24,638,640,0,0,0
670536069,100072,32.38,0,54.14,72.03,176.36,-3750,74.71,-1210.69,0,0.06,0.06,636,639,0,0,0
671554451,100075,32.39,0,54.6,72.03,176.84,-3769.04,62.26,-1212.16,-0.18,0,0.12,636,639,0,0,0
672574265,100075,32.39,0,54.69,72.19,176.95,-3733.15,54.2,-1218.02,0.06,-0.06,-0.12,636,639,0,0,0
673594059,100084,32.39,0,54.82,72.07,177.1,-3744.87,59.33,-1219.48,0.12,0.06,0.12,636,639,0,0,0
674613893,100081,32.4,0,54.76,72.09,177.08,-3746.34,62.99,-1215.09,0,0.18,0.18,636,639,0,0,0
675625364,100076,32.4,0,54.66,72.14,176.95,-3739.75,61.52,-1206.3,0.06,0,-0.24,642,638,0,0,0
676645175,100079,32.4,0,54.24,72.19,176.54,-3741.21,68.12,-1220.21,0.37,0.24,-0.18,642,638,0,0,0
677664983,100079,32.41,0,54.96,72.1,177.33,-3754.39,93.75,-1207.76,-0.06,-0.06,0.06,642,638,0,0,0
678684832,100079,32.41,0,54.33,72.18,176.71,-3750,86.43,-1182.86,-0.12,-0.24,0,642,638,0,0,0
679704644,100072,32.41,0,54.25,72.2,176.64,-3769.04,73.24,-1209.96,0.06,0.31,0.24,642,638,0,0,0
680716106,100079,32.41,0,54.09,72.11,176.5,-3747.8,75.44,-1210.69,0.06,0,-0.37,641,635,0,0,0
681735925,100079,32.41,0,54.84,72.18,177.27,-3747.8,45.41,-1201.17,0,-0.18,-0.18,641,635,0,0,0
682755799,100079,32.41,0,54.57,72.16,177.02,-3760.25,71.04,-1208.5,0,-0.12,-0.06,641,635,0,0,0
683775591,100074,32.42,0,54.3,72.17,176.75,-3741.94,71.78,-1211.43,-0.06,0.06,0.06,641,635,0,0,0
684795417,100078,32.43,0,54.67,72.26,177.14,-3760.25,61.52,-1249.51,0.24,0.18,0.18,641,635,0,0,0
685811137,100078,32.43,0,54.06,72.12,176.46,-3770.51,85.69,-1203.37,0,0.24,0.24,643,643,0,0,0
686830922,100079,32.43,0,54.58,72.09,177.06,-3737.55,73.97,-1210.69,0.12,-0.06,0,643,643,0,0,0
687850772,100079,32.44,0,54.27,72.13,176.74,-3752.93,61.52,-1210.69,0,0.12,-0.06,643,643,0,0,0
688870611,100082,32.44,0,54.59,72.25,177.09,-3747.8,54.2,-1199.71,0.18,0.12,0.18,643,643,0,0,0
689890427,100078,32.44,0,54.34,72.11,176.83,-3762.45,76.9,-1211.43,0.06,0.12,0.18,643,643,0,0,0
690901910,100074,32.44,0,54.5,72.03,177.02,-3737.55,73.97,-1249.51,-0.06,0.12,-0.12,634,633,0,0,0
691921760,100082,32.45,0,54.25,71.97,176.77,-3729.49,49.8,-1279.54,0.55,0.06,0,634,633,0,0,0
692941598,100070,32.44,0,52.51,72.17,174.32,-3740.48,106.93,-1172.61,-5.74,0.18,0.24,634,633,0,0,0
693961395,100077,32.45,0,47.76,72.75,152.26,-3751.46,520.02,-1006.35,2.14,0.12,-0.12,634,633,0,0,0
694981180,100082,32.45,0,47.67,72.71,153.86,-3790.28,463.62,-1727.78,35.1,-3.97,-0.24,634,633,0,0,0
695991594,100086,32.46,0,8.28,85.64,171.76,-3922.12,-240.97,-17.58,-10.56,-0.49,-2.38,636,642,0,0,0
697011363,100077,32.45,0,39.79,81.01,-109.65,-3901.61,-599.12,-420.41,68.6,0.37,0.67,636,642,0,0,0
698031152,100081,32.46,0,38.53,82.01,-95.07,-3887.7,-495.85,-71.04,42.18,1.65,2.93,636,642,0,0,0
699050956,100074,32.46,0,31.21,82.88,-101.15,-3942.63,-507.57,-94.48,0.12,-0.92,-0.55,636,642,0,0,0
700070760,100081,32.47,0,35.34,82.46,-97.64,-3771.24,-603.52,-35.16,-1.59,0.37,0.31,636,642,0,0,0
701082237,100076,32.47,0,35.23,83.32,-99.85,-3580.08,-1585.69,-559.57,-8.79,-0.43,0.24,640,634,0,0,0
702102019,100074,32.48,0,25.88,83.03,-107.85,-268.07,-2045.65,4160.16,19.17,8.18,8.85,640,634,0,0,0
703125636,100073,32.48,0,29.64,82.71,-104.93,-3925.05,-480.47,-106.2,-0.98,0.92,2.56,640,634,0,0,0
704145377,100078,32.48,0,24.19,82.29,-110.66,-3984.38,-440.19,-305.42,-0.06,0.31,-0.18,640,634,0,0,0
705165170,100077,32.48,0,27.97,81.72,-107.26,-3873.05,-134.03,-1167.48,4.27,-1.22,-2.87,640,636,0,0,0
706176626,100084,32.49,0,58.39,79.66,-84.56,-3868.65,-886.23,153.81,-43.58,-8.18,-1.16,640,636,0,0,0
707196461,100078,32.48,0,69.9,80.8,-88.49,-3875.24,-1082.52,716.31,1.4,10.19,3.17,640,636,0,0,0
708216228,100080,32.49,0,75.62,85.05,-89.38,-3891.36,-341.31,370.61,6.23,-13.92,-2.5,640,636,0,0,0
709236052,100079,32.49,0,99.26,84.48,-76.8,-5780.27,-2088.87,614.5,-21.36,0.49,-6.77,640,636,0,0,0
710253886,100080,32.49,0,67.48,86.57,-110.99,-4312.5,110.6,-925.78,-13.12,3.3,-1.04,633,635,0,0,0
711267326,100076,32.5,0,104.85,83.81,-75.58,-1935.06,-772.71,-205.08,-23.62,-5.07,3.17,633,635,0,0,0
712287101,100080,32.5,0,101.07,85.8,-87.69,-3903.81,-347.17,-84.23,12.76,1.71,-0.79,633,635,0,0,0
713306908,99968,32.5,0,102.92,82.14,-80.86,-1888.18,-240.97,128.17,0.12,-0.31,-4.09,633,635,0,0,0
714326765,100072,32.48,0,135.17,84.22,-47.16,-6959.47,-2912.84,1302.25,35.95,7.75,5.31,633,635,0,0,0
715343540,100078,32.47,0,119.19,82.9,-60.5,-4012.21,-454.1,-361.08,-9.28,23.74,-10.5,640,634,0,0,0
716359493,100074,32.48,0,33.65,86.83,-145.7,-3887.7,-17.58,22.71,-3.17,9.89,13.73,640,634,0,0,0
717379283,100081,32.47,0,310.08,73.78,144.36,-3534.67,662.11,-834.96,-10.19,21.18,-15.75,640,634,0,0,0
718399064,100085,32.47,0,308.29,61.97,167.22,-3380.13,303.22,-1683.11,15.01,17.4,-16.24,640,634,0,0,0
719418881,100076,32.48,0,332.66,64.43,-159.35,-3328.86,-265.14,-1862.55,9.03,-1.28,-7.57,640,634,0,0,0
720432762,100082,32.48,0,341.73,63.75,-141.44,-3721.44,-1165.28,-1255.37,-12.39,-2.93,-4.7,637,629,0,0,0
721451574,100078,32.49,0,350.55,69.82,-137.97,-4117.68,-827.64,-1206.3,-1.83,-8.61,-0.85,637,629,0,0,0
722471362,100069,32.48,0,357.55,76.47,-138.57,-3700.2,-714.11,-851.81,-9.7,-9.52,8.91,637,629,0,0,0
723491157,100069,32.49,0,40.32,81.22,-101.79,-3958.01,-728.03,-36.62,-6.59,-7.2,3.6,637,629,0,0,0
724510960,100085,32.5,0,130.16,81.58,-11.92,-3922.12,-103.27,506.84,2.56,-9.22,10.31,637,629,0,0,0
725525866,100077,32.49,0,131.04,83.25,-9.25,-3970.46,-62.99,641.6,3.17,7.14,-2.93,636,629,0,0,0
726542235,100083,32.51,0,152.06,83.67,12.55,-3916.99,97.41,333.98,1.22,0.12,0.18,636,629,0,0,0
727562002,100076,32.53,0,146.39,82.18,7.29,-3881.1,28.56,596.92,-1.95,0.73,-0.43,636,629,0,0,0
728581767,100082,32.53,0,150.57,81.84,12.12,-3870.85,113.53,569.82,1.34,0.12,-0.67,636,629,0,0,0
729601548,100174,32.54,0,161.44,83.85,26.93,-4095.7,462.89,216.06,-1.77,6.96,2.99,636,629,0,0,0
730612975,100085,32.54,0,238,85.69,102.97,-3930.18,396.97,10.25,11.05,2.32,-1.83,643,641,0,0,0
731632811,100082,32.54,0,271.6,89.74,139.82,-3900.15,-697.27,-178.71,8.18,-6.65,0.06,643,641,0,0,0
732652585,100083,32.55,0,202.74,88.65,53.12,-3939.7,33.69,183.11,-1.28,-0.92,-1.1,643,641,0,0,0
733672340,100080,32.54,0,170.22,85.32,18.3,-3925.05,136.23,219.73,1.28,4.7,0.49,643,641,0,0,0
734692114,100085,32.55,0,210.7,86.21,58.07,-3886.96,195.56,139.16,-3.48,2.32,1.65,643,641,0,0,0
735703574,100077,32.55,0,202.5,87.31,48.83,-3932.37,-5.13,180.91,-2.2,0.92,0.79,633,635,0,0,0
736723346,100080,32.54,0,234.46,83.87,81.6,-3889.89,333.98,136.96,-5.07,-0.79,-2.5,633,635,0,0,0
737743135,100078,32.55,0,230.58,85.94,75.82,-3941.89,275.39,41.02,-4.58,0.61,-0.67,633,635,0,0,0
738762936,100078,32.55,0,203.3,87.25,46.79,-3928.71,153.81,178.71,-1.77,0.06,-2.44,633,635,0,0,0
739787449,100079,32.56,0,183.7,87.45,26.81,-3921.39,79.1,182.37,-0.18,-0.06,-0.55,633,635,0,0,0
740798900,100082,32.55,0,177.74,86.68,20.69,-3920.65,120.85,251.22,-0.06,-1.34,0.12,634,636,0,0,0
741818679,100075,32.55,0,163.11,86.38,5.67,-3926.51,-9.52,244.63,-2.56,1.4,-5.98,634,636,0,0,0
742838464,100075,32.56,0,122.77,82.59,-22.28,-4086.91,208.74,59.33,61.22,4.88,-0.61,634,636,0,0,0
743858288,100070,32.55,0,69.56,87.22,-50.09,-3987.3,-41.75,224.85,7.57,-9.16,-0.85,634,636,0,0,0
744878066,100082,32.56,0,70.02,85.77,-49.2,-3938.23,-227.78,100.34,1.16,4.7,-2.01,634,636,0,0,0
745888538,100075,32.56,0,56.19,83.77,-60.13,-3912.6,-350.1,201.42,-0.12,1.77,0.55,633,629,0,0,0
746908335,100078,32.56,0,2.73,88.57,-36.9,-3313.48,-639.4,-630.62,124.51,7.69,-2.81,633,629,0,0,0
747928157,100082,32.57,0,276.23,87.31,-38.65,-3938.23,-199.95,209.47,21.85,-0.24,-1.4,633,629,0,0,0
748947941,100078,32.57,0,233.7,86.63,-81.16,-3919.19,-104.74,226.32,8.48,-3.11,-1.04,633,629,0,0,0
749967840,100073,32.58,0,160.35,85.41,-151.79,-3927.98,-164.06,-365.48,-5.31,2.01,0.55,633,629,0,0,0
750979278,100085,32.58,0,124.41,83.99,166.18,-3968.99,115.72,-484.13,-0.55,0.67,0.49,643,636,0,0,0
751999084,100078,32.59,0,193.58,84.47,-116.94,-3961.67,-514.89,59.33,49.01,-3.78,-6.04,643,636,0,0,0
753019638,100082,32.58,0,182.52,81.08,-89.58,-3902.34,-676.76,0.73,12.39,-0.67,3.36,643,636,0,0,0
754038788,100078,32.59,0,181.32,85.81,-118.83,-3936.04,-586.67,24.9,-57.01,7.02,2.69,643,636,0,0,0
755060651,100077,32.58,0,160.42,85.29,-150.67,-3912.6,-312.74,-256.35,-14.22,-1.34,-1.95,643,636,0,0,0
756070070,100081,32.59,0,168.35,84.13,-146.25,-3916.26,-229.98,-300.29,0.49,0.06,0.79,636,634,0,0,0
757093634,100076,32.59,0,153.75,84,-161.03,-3930.91,-104,-517.82,-3.91,1.16,2.99,636,634,0,0,0
758113405,100077,32.59,0,141.3,84.71,-173.87,-3947.02,-24.9,-374.27,0.06,1.59,0,636,634,0,0,0
759133172,100073,32.59,0,148.01,84.48,-166.98,-3922.12,-86.43,-296.63,0.31,-1.04,0.18,636,634,0,0,0
760152947,100076,32.59,0,147.34,84.24,-168.09,-3030.76,-396.24,-1184.33,-10.38,1.46,-0.98,638,638,0,0,0
761164354,100074,32.6,0,149.28,83.74,-168.16,-3915.53,-0.73,-750.73,-1.34,-1.28,0,638,638,0,0,0
762184125,100080,32.6,0,151.16,84.41,-164.62,-3409.42,-180.91,-975.59,61.65,-3.36,0.49,638,638,0,0,0
763204732,100077,32.6,0,142.14,85.98,-169.58,-4618.65,468.75,-1026.86,1.28,1.22,-0.49,638,638,0,0,0
764223698,100081,32.61,0,144.95,86.7,-166.32,-3770.51,253.42,-504.64,-2.38,0.73,-1.16,638,638,0,0,0
765242483,100080,32.61,0,138.27,80.11,-178.54,-3865.72,-82.76,-1398.93,1.77,-2.93,-0.18,638,635,0,0,0
766258566,100084,32.61,0,141.66,82.22,-174.83,-3897.22,-140.62,-534.67,0.49,-2.69,-2.56,638,635,0,0,0
767282604,100084,32.61,0,136.14,84.43,179.81,-3911.87,1.46,-391.85,0.12,-0.12,-0.43,638,635,0,0,0
768302389,100075,32.62,0,136.91,84.93,-179.45,-3930.91,-38.09,-380.86,-0.55,1.04,-1.22,638,635,0,0,0
769322190,100076,32.61,0,134.24,84.68,177.8,-3930.91,27.1,-361.82,0,-0.43,-0.06,638,635,0,0,0
770337960,100076,32.62,0,143.81,84.82,-172.77,-3959.47,80.57,216.06,0.06,-1.28,-0.55,631,630,0,0,0
771352417,100077,32.61,0,133.18,84.32,177.13,-3933.84,27.1,-428.47,0.79,-0.73,0.55,631,630,0,0,0
772372229,100080,32.62,0,98.17,86.8,63.57,-3933.84,180.91,377.93,-0.85,-0.12,1.1,631,630,0,0,0
773392376,100082,32.62,0,65.75,88.77,57.9,-3963.13,367.68,104,107.91,5.74,5.49,631,630,0,0,0
774411881,100077,32.62,0,92.21,88,69.6,-3909.67,-2.2,203.61,-6.35,-4.03,-1.46,631,630,0,0,0
775426657,100082,32.62,0,136.63,89.74,127.11,-3552.25,-495.85,-195.56,-4.58,0.79,-5.98,638,638,0,0,0
776443032,100032,32.64,0,172.9,88.61,166.58,-1984.13,-275.39,145.02,6.53,0.43,0.18,638,638,0,0,0
777462815,100075,32.64,0,183.37,86.93,-178.18,-3994.63,-322.27,222.66,-21.91,2.99,-1.22,638,638,0,0,0
778482589,100062,32.62,0,208.92,84.36,-150.88,-3155.27,-584.47,-38.82,12.57,-3.11,-16.05,638,638,0,0,0
779502326,100070,32.61,0,189.32,85.09,-173.3,-3391.11,-347.9,-479.74,30.94,0.55,4.76,638,638,0,0,0
780515223,100083,32.62,0,217.36,71.35,-146.21,-4190.19,-1054.69,-1028.32,-3.97,1.04,11.66,642,639,0,0,0
781533481,100077,32.62,0,240.63,71.2,-127.01,-3791.75,-872.31,-473.14,7.39,-2.5,-20.51,642,639,0,0,0
782553305,100077,32.62,0,230.16,61.55,-142.11,-3563.23,-1155.03,-1672.12,-1.4,14.65,3.78,642,639,0,0,0
783573073,100072,32.62,0,238.54,72.75,-127.06,-3814.45,-882.57,-825.44,11.84,-2.62,-4.27,642,639,0,0,0
784592907,100071,32.63,0,335.24,76.98,-41.95,-3947.75,-83.5,955.81,-11.29,14.34,-21.67,642,639,0,0,0
785609196,100075,32.62,0,289.41,79.37,-96.54,-3887.7,-637.94,-122.31,5.55,6.29,-7.57,636,631,0,0,0
786628993,100082,32.63,0,298.28,77.6,-87.42,-3817.38,-807.13,-30.76,6.96,-2.08,-2.5,636,631,0,0,0
787648834,100072,32.63,0,297.68,74.08,-86.21,-3943.36,-941.16,57.13,-3.66,-2.99,4.21,636,631,0,0,0
788668653,100068,32.64,0,275.25,72.88,-110.74,-3757.32,-777.1,-577.88,16.48,25.76,-9.46,636,631,0,0,0
789688460,100072,32.64,0,267.34,75.03,-120.68,-3862.06,-766.11,-623.29,2.99,-4.21,0.61,636,631,0,0,0
790699941,100078,32.64,0,267.95,81.8,-114.87,-3925.05,-604.25,-147.22,7.26,-5.68,-1.53,640,635,0,0,0
791719789,100075,32.65,0,291.26,82.37,-89.78,-3726.56,-638.67,120.12,-3.23,-5.13,-3.48,640,635,0,0,0
792739622,100080,32.65,0,301.3,87.96,-79.34,-3922.12,-177.25,265.87,2.87,-7.39,16.72,640,635,0,0,0
793759386,100076,32.65,0,51.34,88.15,33.12,-3930.18,-55.66,222.66,2.87,1.59,-3.11,640,635,0,0,0
794779143,100076,32.65,0,107.8,88.47,89.98,-3877.44,569.09,50.54,-8.12,7.39,9.7,640,635,0,0,0
795789613,100078,32.66,0,241.58,89.25,-133.69,-3965.33,56.4,-341.31,-6.96,0.12,5.68,642,632,0,0,0
796809374,100072,32.66,0,139.52,87.64,127.73,-1706.54,-1409.18,-185.3,6.96,-3.91,-36.25,642,632,0,0,0
797829147,100074,32.66,0,139.76,85.71,128.38,-7286.13,-3818.85,1049.56,-31.49,5,29.48,642,632,0,0,0
798848954,100112,32.67,0,141.51,85.46,132.38,-3880.37,233.64,-305.42,-8.61,-1.1,0.06,642,632,0,0,0
799868738,100074,32.68,0,195.37,85.92,-163.09,-4209.96,-544.19,334.72,1.89,-9.64,-1.1,642,632,0,0,0
800880155,100074,32.69,0,137.89,84.72,179.85,-3820.31,-2.93,-517.09,47.67,24.48,-4.88,636,634,0,0,0
801899945,100074,32.69,0,102.2,61.76,-172,-3473.88,-391.11,-1346.92,13.49,16.91,32.04,636,634,0,0,0
802919839,100073,32.68,0,67.19,57.66,-171.06,-3203.61,-598.39,-2002.44,13,-6.16,1.53,636,634,0,0,0
803943458,100071,32.68,0,81.53,54.89,-157.72,-3520.75,-927.98,-2263.18,7.69,14.95,-7.87,636,634,0,0,0
804963238,100073,32.68,0,85.92,40.41,-146.86,-2104.98,-1685.3,-2775.88,9.4,1.28,-2.38,636,634,0,0,0
805974687,100067,32.69,0,85.76,44.94,-164.88,-2797.85,-725.1,-2860.84,-46.33,-7.39,5.31,637,638,0,0,0
806994524,100072,32.7,0,80.65,37.57,175.26,-2271.24,465.09,-3046.88,31.62,28.32,2.56,637,638,0,0,0
808014358,100073,32.7,0,74.97,36.45,170.1,-2603.76,505.37,-3435.06,17.58,-11.54,9.09,637,638,0,0,0
809034155,100073,32.7,0,64.01,29.07,166.82,-2339.36,819.58,-3418.95,-15.01,-16.66,-9.58,637,638,0,0,0
810053985,100076,32.7,0,68.98,34.42,167.47,-2236.82,648.19,-3118.65,9.34,10.31,3.78,637,638,0,0,0
811065451,100067,32.7,0,69.59,30.49,-178.88,-1990.72,39.55,-3204.35,20.81,30.33,3.3,645,637,0,0,0
812085236,100070,32.71,0,68.87,12,-176.84,-720.7,-232.91,-4081.05,-6.9,-2.32,0.85,645,637,0,0,0
813105057,100069,32.71,0,66.14,10.49,-175.68,-704.59,-310.55,-3811.52,3.17,2.56,-4.94,645,637,0,0,0
814124863,100072,32.72,0,64.05,-0.16,-172.93,-85.69,-525.88,-3880.37,-6.77,-3.3,0.79,645,637,0,0,0
815144691,100076,32.73,0,67.14,-0.35,-174.61,27.83,-429.2,-3782.23,-2.56,-2.56,-2.99,636,629,0,0,0
816156100,100071,32.74,0,66.72,3.41,177.35,-270.26,336.18,-3831.3,-7.02,-7.57,2.93,636,629,0,0,0
817175884,100074,32.74,0,64.82,7.36,178.51,-498.78,-103.27,-3843.02,-5.74,-1.34,-4.58,636,629,0,0,0
818195651,100076,32.76,0,70.49,18.85,-176.37,-1196.04,-169.19,-3780.76,2.69,0.06,-5.19,636,629,0,0,0
819215443,100068,32.76,0,63.73,3.41,-166.15,65.92,-1341.06,-4397.46,63.35,21.55,9.46,636,629,0,0,0
820233216,100072,32.76,0,59.39,3.81,-158.12,-167.72,-1634.03,-3380.86,1.77,-0.85,0.73,640,640,0,0,0
821249637,100075,32.76,0,52.44,-8.06,-163.72,665.77,-1229.74,-3927.98,-11.9,19.29,4.64,640,640,0,0,0
822269446,100070,32.78,0,45.36,-6.66,-166.88,-415.28,-1092.77,-4177.73,-30.03,-6.41,18.07,640,640,0,0,0
823289255,100074,32.79,0,37.05,-9.67,175.25,1315.43,292.24,-4311.04,6.29,23.8,-1.22,640,640,0,0,0
824309052,100081,32.79,0,40.21,-21.49,174.83,1546.87,677.49,-3529.54,-82.82,-0.12,1.4,640,640,0,0,0
825327847,100082,32.8,0,38.88,-13.46,-172.81,513.43,-439.45,-3870.12,-40.95,-9.83,-5.31,638,634,0,0,0
826340254,100080,32.81,0,40.37,-12.26,-175.64,967.53,-313.48,-4015.14,22.77,1.71,-1.28,638,634,0,0,0
827360041,100073,32.82,0,43.49,-7.45,-157.62,498.05,-1532.96,-3618.9,10.56,6.53,-1.53,638,634,0,0,0
828379871,100072,32.83,0,37.04,-4.49,-157.42,592.53,-1575.44,-3759.52,-10.19,4.39,19.78,638,634,0,0,0
829399670,100076,32.84,0,28.89,-0.35,-146.2,-79.1,-2156.98,-3256.35,44.8,-14.22,4.27,638,634,0,0,0
830414523,100076,32.85,0,32.29,5.18,-151.63,-474.61,-2065.43,-3635.01,-3.3,-2.44,1.89,641,636,0,0,0
831430876,100079,32.85,0,33.31,4.79,-151.26,-268.07,-1945.31,-3760.99,5.19,-5.31,-4.7,641,636,0,0,0
832450697,100072,32.86,0,38.77,2.79,-145.37,-76.17,-2635.99,-3816.65,16.54,1.16,-6.23,641,636,0,0,0
833470494,100074,32.86,0,42.97,5.8,-160.08,-519.29,-1590.82,-4759.28,-105.83,0.43,-9.58,641,636,0,0,0
834490269,100071,32.86,0,44.08,-1.71,-172.77,-54.93,-681.88,-4689.7,-80.38,-4.94,5.43,641,636,0,0,0
835504181,100072,32.86,0,40.8,-3.29,-166.99,208.01,-931.64,-4155.03,9.83,2.38,8.54,641,640,0,0,0
836521443,100067,32.87,0,30.46,0.76,-163.21,-118.65,-1088.38,-4096.44,-59.02,12.88,1.59,641,640,0,0,0
837541209,100072,32.89,0,19.13,5.13,-167.44,-563.96,-914.06,-3945.56,19.29,13.61,5.68,641,640,0,0,0
838560953,100067,32.88,0,2.63,3.13,-169.84,-187.5,-807.86,-3942.63,-9.77,20.63,25.33,641,640,0,0,0
839585501,100075,32.89,0,332.47,-0.58,-173.22,353.76,-198.49,-3801.27,-20.39,-5.13,20.39,641,640,0,0,0
840596904,100067,32.89,0,320.66,-0.87,-175.58,135.5,-75.44,-3911.87,-1.04,0.55,-0.24,640,639,0,0,0
841616640,100071,32.89,0,326.72,-0.46,-175.49,1023.93,-717.04,-4026.12,52.12,-10.56,-3.23,640,639,0,0,0
842636346,100063,32.89,0,354.7,-2.75,-168.48,858.4,-534.67,-3963.87,-13.06,-13.37,-50.78,640,639,0,0,0
843656075,100065,32.9,0,56.74,-3,-177.93,123.05,-17.58,-3768.31,-5.92,0.92,-60.49,640,639,0,0,0
844675871,100073,32.9,0,93.9,-0.92,-177.97,-64.45,-142.82,-4064.21,-9.4,-4.09,-15.2,640,639,0,0,0
845695634,100073,32.9,0,95.43,2.3,-171.42,560.3,-1162.35,-4164.55,35.1,-0.67,5.49,628,634,0,0,0
846715370,100075,32.91,0,73.61,-2.62,-169.91,469.48,-1112.55,-3800.54,14.1,14.89,38.82,628,634,0,0,0
847735143,100073,32.92,0,42.7,-11.74,-166.82,866.46,-1026.12,-3894.29,-5.49,1.89,14.16,628,634,0,0,0
848754902,100076,32.92,0,31.6,-3.93,-162.61,-10.99,-964.6,-3952.88,-4.21,5.19,23.68,628,634,0,0,0
849774642,100076,32.92,0,350.53,-6.65,-170.45,652.59,-890.62,-3938.96,-14.89,11.11,50.35,628,634,0,0,0
850785003,100069,32.93,0,312.07,-13.5,-172.61,919.19,-484.13,-3904.54,-4.82,10.62,15.26,633,634,0,0,0
851804862,100070,32.94,0,315.53,-6.46,-166.71,157.47,-1114.75,-3367.68,-5.13,-9.16,-8.12,633,634,0,0,0
852824651,100077,32.95,0,335.4,-8.72,-168.99,365.48,-717.77,-3919.92,-3.66,-0.79,-14.4,633,634,0,0,0
853844421,100073,32.95,0,347.37,-8.68,-165.74,1185.79,-484.13,-3843.75,13.67,-9.09,-15.08,633,634,0,0,0
854864161,100069,32.96,0,16.26,-7.78,-169.87,452.64,-638.67,-3717.04,12.82,-9.7,-49.68,633,634,0,0,0
855875543,100081,32.96,0,81.58,-6.77,-172.88,550.05,-1096.44,-4026.12,14.59,-11.47,-52,640,632,0,0,0
856895327,100078,32.96,0,111.85,-8.73,-164.63,1004.88,-686.28,-3771.97,33.14,-5.55,-16.6,640,632,0,0,0
857915156,100071,32.96,0,125.85,-6.76,-168.47,1406.98,-1626.71,-3811.52,5.49,-11.66,-0.49,640,632,0,0,0
858934969,100073,32.97,0,136.86,-8.18,-168.41,74.71,-948.49,-3810.06,-8.54,6.35,-17.09,640,632,0,0,0
859954813,100072,32.98,0,149.2,-4.19,-169.66,763.18,-224.85,-3828.37,4.46,-8.85,-10.31,640,632,0,0,0
860966149,100071,32.98,0,120.81,-6.35,-168.43,462.16,-1313.23,-4352.05,-0.67,10.8,63.23,637,641,0,0,0
861985949,100070,32.99,0,73.49,-3.06,-164.05,325.93,-484.13,-3835.69,11.6,1.04,4.46,637,641,0,0,0
863005769,100073,33,0,91.36,4.42,-162.99,-17.58,-1119.87,-3771.97,43.21,-12.94,-21.42,637,641,0,0,0
864025596,100070,33,0,119.63,-2.58,-164.48,247.56,-1056.15,-3818.85,-6.65,-3.91,-24.72,637,641,0,0,0
865045403,100075,33,0,116.12,-4.14,-166.6,100.34,-1432.62,-3843.75,-2.62,10.74,43.4,637,641,0,0,0
866061030,100074,33.01,0,52.64,-2.09,-165.3,251.22,-690.67,-3716.31,-16.36,19.96,54.69,630,640,0,0,0
867080797,100069,33.01,0,3.89,-3.38,-166.48,880.37,-899.41,-4063.48,3.05,0.06,20.81,630,640,0,0,0
868100556,100067,33.02,0,354.64,0.5,-170.86,-506.84,-603.52,-3665.04,6.96,2.5,-3.78,630,640,0,0,0
869121653,100078,33.01,0,16.08,-4.22,-164.26,739.75,-1576.17,-3958.01,19.96,-1.59,-20.69,630,640,0,0,0
870140091,100069,33,0,37.53,-7.33,-161.54,576.42,-759.52,-4191.65,-8.24,-0.37,-18.13,634,636,0,0,0
871152670,100070,33.01,0,36.19,-0.5,-162.31,230.71,-1231.2,-3708.25,-24.84,-0.18,13.61,634,636,0,0,0
872171228,100077,33,0,1.37,-3.63,-157.59,852.54,-1166.02,-3888.43,31.68,12.21,44.49,634,636,0,0,0
873190939,100063,33.01,0,313.19,-1.67,-160.97,406.49,-1957.03,-5540.04,-25.51,6.71,27.59,634,636,0,0,0
874210712,100067,33,0,301.93,2.43,-168.17,-281.25,-811.52,-3492.19,-41.81,-1.28,0.92,634,636,0,0,0
875228509,100063,33,0,300.58,2.95,-169.48,-53.47,-1231.2,-4094.24,33.45,-4.09,1.59,641,636,0,0,0
876240940,100070,33,0,302.68,2.59,-173.79,-128.91,-966.06,-4814.21,17.88,0.92,0.79,641,636,0,0,0
877260764,100070,33.01,0,306.85,-0.43,-173.36,-32.23,-925.78,-5185.55,-2.75,4.88,1.77,641,636,0,0,0
878280564,100073,33.01,0,294.13,-5.27,-169.03,618.16,-1160.89,-5334.23,-42.54,0.73,20.32,641,636,0,0,0
879300346,100075,33.01,0,279.81,-0.33,-167.73,-211.67,-729.49,-3869.38,7.51,-6.04,7.81,641,636,0,0,0
880317163,100075,33.01,0,277.89,-2.13,-167.65,-61.52,-689.21,-3320.07,49.44,-10.68,1.53,627,636,0,0,0
881331579,100077,33.01,0,276.13,2.14,-164.95,0,-941.89,-3754.39,0.67,-11.9,-0.79,627,636,0,0,0
882351364,100071,33.02,0,279.96,-0.9,-164.73,-32.23,-1144.78,-4111.08,0.85,1.4,-2.93,627,636,0,0,0
883374594,100067,33.02,0,280.19,-0.97,-161.6,79.83,-1303.71,-3848.14,-3.23,1.28,-0.37,627,636,0,0,0
884394412,100068,33.03,0,283.64,-2.43,-156.29,149.41,-1610.6,-3673.1,11.35,4.76,-7.93,627,636,0,0,0
885410194,100069,33.03,0,286.8,-3.69,-157.96,247.56,-1496.34,-3736.08,-6.29,1.4,-0.55,633,638,0,0,0
886425616,100070,33.05,0,282.42,-2.32,-157.74,148.68,-1547.61,-3788.82,-10.13,-3.17,6.47,633,638,0,0,0
887445383,100072,33.04,0,283.14,-4.99,-152.71,303.96,-2172.36,-3525.15,-14.1,3.3,-9.89,633,638,0,0,0
888465150,100065,33.05,0,302.24,-4.75,-151.27,349.37,-2090.33,-3876.71,-43.27,-21.73,-16.97,633,638,0,0,0
889484917,100075,33.06,0,321.23,-1.19,-156.87,-257.81,-1349.85,-3624.02,0.73,8.79,-17.64,633,638,0,0,0
890502284,100071,33.06,0,330.22,-5.73,-149.59,90.82,-2001.71,-3657.71,11.66,-7.93,-14.95,640,636,0,0,0
891516114,100068,33.07,0,327.36,-5.33,-151.43,39.55,-2061.77,-3923.58,-14.77,5.07,7.45,640,636,0,0,0
892535887,100071,33.07,0,321.09,-1.52,-151.59,49.8,-2340.82,-4880.86,-3.11,-7.87,4.03,640,636,0,0,0
893555666,100073,33.08,0,320.85,-3.61,-151.54,568.36,-3579.35,-5103.52,5,3.6,-0.98,640,636,0,0,0
894575459,100067,33.08,0,325.28,-10.17,-154.84,1655.27,-2283.69,-3823.24,34.48,-9.16,14.28,640,636,0,0,0
895586876,100068,33.09,0,320.98,-0.85,-156.74,459.23,-2190.67,-4012.21,13.55,-4.88,5.98,640,630,0,0,0
896606629,100067,33.09,0,322.85,-4.18,-160.66,632.81,-1636.23,-3906.01,-1.28,5.86,-2.62,640,630,0,0,0
897626385,100081,33.1,0,338.88,-9.7,-150.33,807.13,-2788.33,-4829.59,14.65,-9.7,-21.42,640,630,0,0,0
898646126,100068,33.1,0,16.55,-13.87,-150.53,968.26,-1818.6,-3480.47,7.63,-18.43,-37.29,640,630,0,0,0
899665888,100072,33.1,0,48.98,-16.13,-155.34,1181.4,-1750.49,-3477.54,16.54,-5.62,-25.45,640,630,0,0,0
900676271,100072,33.11,0,61.92,-17.67,-156.41,1245.85,-1502.2,-3593.99,-7.93,-5.92,1.4,632,629,0,0,0
901700540,100079,33.12,0,65.91,-12.64,-156.87,840.09,-1617.19,-3595.46,-4.03,-5.31,-3.54,632,629,0,0,0
902720345,100070,33.12,0,75.36,-10.27,-159.62,643.07,-932.37,-3424.8,0.67,-1.04,-13.49,632,629,0,0,0
903740149,100065,33.13,0,83.75,-7.96,-166.09,502.44,-1164.55,-3923.58,-18.55,-19.96,-0.24,632,629,0,0,0
904759973,100069,33.13,0,98.25,-4.39,165.38,255.62,903.81,-3854.74,-67.44,4.52,-22.71,632,629,0,0,0
905771390,100070,33.13,0,120.84,-4.1,171.27,128.91,735.35,-4599.61,9.28,-3.78,-19.53,638,630,0,0,0
906791167,100073,33.14,0,160.22,-7.04,171.29,780.03,533.2,-4005.62,34.06,9.83,-63.6,638,630,0,0,0
907810911,100065,33.14,0,234.9,-2.98,172.57,790.28,-31.49,-3913.33,-36.01,2.99,-59.39,638,630,0,0,0
908830767,100080,33.15,0,293.45,-3.2,179.67,-100.34,-93.75,-4193.85,-23.07,14.28,-48.77,638,630,0,0,0
909850593,100080,33.15,0,325.14,3.03,-174.58,-278.32,-331.05,-3216.8,12.33,-17.94,-20.14,638,630,0,0,0
910862012,100069,33.16,0,327.96,1.25,-179.09,240.97,473.88,-4423.83,7.45,-6.1,2.75,638,632,0,0,0
911881794,100068,33.15,0,324.21,0.08,178.81,-107.67,124.51,-4131.59,-9.46,-1.59,4.21,638,632,0,0,0
912901630,100073,33.16,0,328.75,1.36,-178.72,-210.94,-379.39,-3565.43,-11.84,-3.91,-3.42,638,632,0,0,0
913921394,100063,33.17,0,333.38,-1.05,179.65,35.89,-168.46,-3097.41,-34,10.07,2.87,638,632,0,0,0
914941176,100070,33.17,0,330.12,-0.53,177.32,372.8,-50.54,-4343.26,4.64,-3.17,3.17,638,632,0,0,0
915952558,100075,33.17,0,333.94,0.37,171.69,139.16,889.89,-5698.97,2.62,-0.31,-3.17,639,636,0,0,0
916972311,100068,33.17,0,336.3,-1.69,172.87,-16.85,877.44,-4279.54,-24.54,4.39,-4.64,639,636,0,0,0
917992061,100075,33.17,0,338.61,4.33,177.33,-336.91,273.19,-3279.79,-6.1,-5.62,-7.87,639,636,0,0,0
919011845,100070,33.17,0,335.38,5.26,-178.13,-208.74,-154.54,-3005.86,-16.72,7.2,-0.49,639,636,0,0,0
920036398,100073,33.17,0,331.82,-0.27,178.39,-109.13,200.68,-3371.34,22.95,-9.28,3.78,639,636,0,0,0
921047846,100072,33.18,0,327.21,5.6,176.1,-488.53,735.35,-4551.27,9.52,4.03,-3.97,638,637,0,0,0
922067564,100069,33.17,0,329.65,2.67,176.74,-60.79,568.36,-4633.3,7.93,-3.85,-2.93,638,637,0,0,0
923087269,100075,33.18,0,328.21,3.17,176.42,-398.44,158.94,-5545.17,-8.42,-2.2,5.43,638,637,0,0,0
924106986,100075,33.18,0,329.33,1.38,175.63,-126.71,32.23,-4055.42,-15.01,-1.53,-0.18,638,637,0,0,0
925126755,100064,33.18,0,327.98,4.27,175.34,-344.24,205.08,-3463.62,-4.15,-4.09,9.16,638,637,0,0,0
926137107,100075,33.19,0,325.16,3.45,175.37,-388.18,186.77,-3395.51,1.59,6.16,1.34,638,636,0,0,0
927156901,100079,33.18,0,325.09,1.47,170.9,304.69,344.97,-4264.16,-0.61,1.71,1.71,638,636,0,0,0
928176722,100071,33.18,0,326.34,2.51,168.75,-180.91,1456.79,-5307.13,12.33,-4.21,1.22,638,636,0,0,0
929196565,100076,33.18,0,324.44,0.55,163.97,-77.64,1595.21,-4067.87,-30.64,10.25,1.53,638,636,0,0,0
930216324,100075,33.18,0,327.57,4.18,166.4,-597.66,948.49,-4103.76,-39.25,3.6,-2.01,640,637,0,0,0
931227754,100074,33.19,0,324.58,1.64,168.46,-159.67,710.45,-3043.21,-18.86,1.22,-1.59,640,637,0,0,0
932247551,100074,33.19,0,325.56,-0.18,166.92,65.19,587.4,-3210.21,5.49,2.62,-9.64,640,637,0,0,0
933267329,100064,33.19,0,326.58,4.61,169.83,-306.15,1295.65,-4810.55,9.22,-8.48,-2.14,640,637,0,0,0
934287099,100076,33.19,0,324.35,4.16,172.72,-230.71,1272.95,-5726.07,43.95,2.69,-2.08,640,637,0,0,0
935306860,100074,33.19,0,325.53,-0.78,169.04,128.17,617.43,-4795.9,-5.8,-3.91,4.46,631,635,0,0,0
936318262,100079,33.2,0,323.32,1.06,169.8,-87.16,378.66,-3476.07,-17.21,0,4.39,631,635,0,0,0
937342617,100074,33.2,0,323.88,1.49,174.52,-170.65,128.17,-3140.63,-23.13,2.62,-0.79,631,635,0,0,0
938362405,100070,33.21,0,327.34,1.7,177.04,265.87,114.99,-4154.3,-4.58,-3.23,-1.04,631,635,0,0,0
939382182,100075,33.21,0,331.16,3.04,177.29,-25.63,-158.2,-3769.78,18.55,2.38,0.24,631,635,0,0,0
940397935,100075,33.21,0,331.2,1.89,175.47,-186.77,640.87,-4173.34,-28.93,5.19,-8.12,636,632,0,0,0
941413316,100078,33.22,0,339.39,1.66,173.8,-446.78,671.63,-3713.38,-34.06,9.22,-5.55,636,632,0,0,0
942433057,100074,33.23,0,338.24,-0.43,179.23,-142.09,307.62,-3346.44,-14.71,3.6,4.09,636,632,0,0,0
943452841,100073,33.23,0,341.91,-0.52,-178.65,197.75,-203.61,-3119.38,-32.29,2.38,-16.36,636,632,0,0,0
944472582,100071,33.24,0,341.87,3.37,-177.4,-288.57,-100.34,-3209.47,28.26,-6.16,5.43,636,632,0,0,0
945486404,100076,33.25,0,336.57,2.63,-178.69,-158.2,60.06,-4366.7,-6.04,-2.56,-3.42,641,637,0,0,0
946503694,100076,33.25,0,332.08,2.03,-179.06,-410.89,98.14,-5972.9,17.52,-1.22,1.4,641,637,0,0,0
947523424,100076,33.25,0,337.61,-0.92,179.04,107.67,-147.95,-3823.24,-8.97,-8.36,-4.58,641,637,0,0,0
948543132,100062,33.25,0,339.63,2.49,-176.95,-320.07,-318.6,-3373.54,4.64,-1.16,2.75,641,637,0,0,0
949562866,100070,33.25,0,338.14,-0.76,-179.24,2.93,-292.24,-3396.24,-28.32,-6.96,4.94,641,637,0,0,0
950574777,100073,33.27,0,334.32,-2.37,-179.28,514.16,-134.77,-4259.77,-3.85,0.43,-1.83,633,634,0,0,0
951593004,100073,33.27,0,344.71,-1.82,178.52,265.14,158.94,-4259.77,28.93,10.13,-14.4,633,634,0,0,0
952612786,100076,33.27,0,351.39,-0.96,179.59,-164.79,477.54,-4259.77,-10.13,-7.93,11.11,633,634,0,0,0
953633759,100076,33.28,0,336.69,-3.08,179.37,-147.22,79.83,-3519.29,-20.57,9.83,14.53,633,634,0,0,0
954652245,100076,33.28,0,331.44,0.61,-177.01,-119.38,-132.57,-3283.45,-8.85,-5.8,-2.14,633,634,0,0,0
955664164,100071,33.29,0,336.16,1.94,-176.66,-20.51,-119.38,-3437.99,23.07,3.97,-19.35,641,630,0,0,0
956683296,100072,33.3,0,346.8,1.99,-173.73,-210.21,0,-4737.3,6.23,-2.69,7.75,641,630,0,0,0
957703038,100064,33.29,0,344.58,2.22,-172.66,-227.78,-177.98,-5015.62,16.78,6.04,-17.21,641,630,0,0,0
958722810,100076,33.3,0,347.79,-2.29,-179.81,299.56,-163.33,-4026.12,0.92,-9.95,5.43,641,630,0,0,0
959742571,100076,33.31,0,339.91,0.43,175.76,-2.2,142.82,-3560.3,-9.95,-3.17,9.77,641,630,0,0,0
960753899,100068,33.31,0,340.32,4.86,175.01,-37.35,145.75,-3230.71,-0.61,6.84,12.21,641,638,0,0,0
961773667,100068,33.31,0,349.29,-2.77,161.18,596.19,1250.98,-3878.91,-29.24,0.06,-11.17,641,638,0,0,0
962793418,100078,33.32,0,345.81,3.16,169.49,-373.54,729.49,-4949.71,21.24,-3.23,17.4,641,638,0,0,0
963815456,100074,33.31,0,337.45,3.11,172.56,-519.29,669.43,-3919.19,-3.66,1.65,-1.65,641,638,0,0,0
964835192,100069,33.31,0,335.01,-0.13,174.5,158.94,768.31,-4169.68,-4.82,6.9,-3.36,641,638,0,0,0
965846551,100079,33.32,0,333.97,5.16,176.62,-507.57,-71.78,-3696.53,-3.48,-6.71,8.24,636,636,0,0,0
966866285,100068,33.32,0,331.62,-2.67,174.01,239.5,210.21,-3562.5,18.25,-3.48,2.99,636,636,0,0,0
967886053,100068,33.32,0,335.23,-4.27,171.02,501.71,920.65,-4771,-11.72,7.69,-2.14,636,636,0,0,0
968905850,100073,33.33,0,335.8,-4,173.75,5.13,492.92,-3889.16,-9.34,-0.24,-0.98,636,636,0,0,0
969925636,100075,33.32,0,331.1,-0.85,179.87,127.44,87.89,-3868.65,-31.13,15.69,0.43,636,636,0,0,0
970937018,100075,33.34,0,328.69,-7.67,171.3,399.9,215.33,-3777.83,-15.32,-14.71,3.3,637,638,0,0,0
971956741,100074,33.34,0,329.21,-11.21,168.87,794.68,706.05,-3894.29,-12.15,17.76,-0.55,637,638,0,0,0
972976460,100074,33.35,0,319.49,-9.55,156.94,641.6,1509.52,-3470.95,-9.22,-16.17,13.92,637,638,0,0,0
973996198,100077,33.35,0,314.65,-9.22,157.48,641.6,1483.15,-3627.69,-4.76,-2.81,3.72,637,638,0,0,0
975015935,100075,33.35,0,309.67,-8.06,154.81,506.1,1659.67,-3480.47,-3.23,-2.14,-0.49,637,638,0,0,0
976026316,100082,33.36,0,312.43,-5.56,152.15,689.21,1929.2,-3307.62,-4.7,2.08,-7.93,636,640,0,0,0
977046038,100077,33.36,0,316.22,-2.05,157.07,300.29,1293.46,-3782.96,3.23,-7.57,3.85,636,640,0,0,0
978065876,100077,33.36,0,317.29,-1.21,155.62,186.77,1636.23,-3607.18,-5.43,-4.94,-15.44,636,640,0,0,0
979085653,100078,33.36,0,331.55,-2.63,152.42,175.05,1823.73,-3489.99,2.32,12.21,-5.25,636,640,0,0,0
980105450,100074,33.36,0,333.91,-1.76,155.56,155.27,1619.38,-3544.92,0.92,-2.56,3.97,636,640,0,0,0
981116865,100074,33.37,0,332.03,-4.76,154.28,545.65,1652.34,-3626.22,-4.94,-0.92,-5.98,643,637,0,0,0
982140442,100069,33.36,0,333.53,-4.3,156.97,273.19,1512.45,-3604.25,-2.87,1.65,6.53,643,637,0,0,0
983161653,100074,33.37,0,330.2,-3.56,156.33,235.84,1540.28,-3581.54,10.01,-2.81,1.34,643,637,0,0,0
984179977,100072,33.37,0,322.09,-4.09,156.72,323,1544.68,-3583.74,0.12,1.89,1.89,643,637,0,0,0
985203195,100070,33.37,0,324.75,-4.15,153.66,218.26,1729.98,-3010.25,-1.53,-0.92,-3.11,641,640,0,0,0
986219542,100070,33.38,0,325.81,-3.53,150.84,243.9,1910.16,-3334.72,-3.23,-1.59,0.61,641,640,0,0,0
987239289,100073,33.38,0,320.97,-1.76,154.86,93.02,1623.78,-3506.1,-20.02,-2.5,0.49,641,640,0,0,0
988259077,100075,33.38,0,320.74,-2.7,152.93,236.57,1783.45,-3523.68,4.7,1.77,-1.95,641,640,0,0,0
989278873,100064,33.38,0,324.69,-3.43,152.53,219.73,1846.44,-3517.09,4.58,3.3,0.31,641,640,0,0,0
990297648,100068,33.38,0,325.53,-3.8,154.11,398.44,1769.53,-4181.4,4.21,4.03,0,639,637,0,0,0
991310037,100072,33.38,0,329.05,-2.7,152.97,194.82,1814.21,-3515.63,-1.46,1.16,1.28,639,637,0,0,0
992329861,100075,33.39,0,325.74,-3.46,153.45,232.91,1740.97,-3492.19,-4.52,-0.73,3.17,639,637,0,0,0
993349668,100072,33.39,0,324.84,-4.74,154.17,326.66,1696.29,-3538.33,4.21,0.24,1.16,639,637,0,0,0
994369446,100071,33.4,0,324.15,-4.45,153.48,301.76,1762.21,-3507.57,1.1,0.67,1.89,639,637,0,0,0
995388174,100068,33.4,0,323.97,-3.84,154.96,210.21,1718.26,-2889.4,1.83,-0.31,1.34,640,638,0,0,0
996400586,100068,33.4,0,320.99,-4.13,154.96,284.18,1656.74,-3555.18,-0.92,-0.24,0.06,640,638,0,0,0
997420346,100063,33.4,0,321.48,-6.08,147.9,476.81,2041.26,-3388.92,-10.44,1.95,0.18,640,638,0,0,0
998440134,100068,33.4,0,322.44,-3.93,142.01,429.93,2476.32,-3066.65,16.48,-6.65,-4.7,640,638,0,0,0
999459924,100067,33.4,0,322.14,-1.35,143.1,81.3,2337.89,-3228.52,-11.23,-3.42,-0.73,640,638,0,0,0
1000474812,100067,33.41,0,316.36,-1.98,137.09,130.37,2720.95,-2824.22,-5.86,-1.53,5.98,635,640,0,0,0
1001491110,100072,33.41,0,319.01,-3.1,138.6,151.61,2573,-2935.55,-1.59,11.96,-7.02,635,640,0,0,0
1002510858,100069,33.4,0,325.11,-2.22,140.84,90.09,2464.6,-3098.88,5.37,-6.59,-2.26,635,640,0,0,0
1003530629,100071,33.41,0,319.65,-2.13,137.29,153.81,2644.78,-2862.3,2.38,-5.25,2.99,635,640,0,0,0
1004550389,100071,33.41,0,317.92,-0.84,138.35,122.31,2615.48,-2875.49,-2.01,0.18,1.53,635,640,0,0,0
1005563276,100071,33.41,0,315.62,-0.84,138.32,24.9,2595.7,-2898.19,0.06,-2.87,-0.43,637,628,0,0,0
1006580554,100075,33.41,0,316.57,-1.92,138.43,131.1,2603.76,-2939.94,-2.87,1.46,-1.16,637,628,0,0,0
1007602555,100069,33.42,0,320.17,-1.03,135.89,86.43,2767.09,-2809.57,-7.63,6.84,-0.12,637,628,0,0,0
1008622348,100068,33.41,0,320.46,-3.96,135.69,240.97,2747.31,-2770.02,0.18,-1.59,0.73,637,628,0,0,0
1009642139,100069,33.42,0,320.04,-3.65,137.13,224.85,2660.16,-2852.78,4.15,-0.55,1.89,637,628,0,0,0
1010653525,100070,33.43,0,317.78,-4.9,135.06,331.05,2704.1,-2709.23,-3.36,-0.98,2.56,640,638,0,0,0
1011673304,100069,33.42,0,316.91,-3.92,137.03,265.87,2662.35,-2863.77,-1.59,-0.24,0.67,640,638,0,0,0
1012693057,100065,33.43,0,316.92,-4.75,128.95,312.01,3054.93,-2447.75,-22.16,1.16,-2.2,640,638,0,0,0
1013712885,100065,33.43,0,319.52,-4.48,130.14,321.53,2944.34,-2479.25,-2.01,2.38,2.26,640,638,0,0,0
1014732696,100068,33.43,0,318.01,-5.27,130.59,342.04,2944.34,-2521,4.15,-3.54,-0.49,640,638,0,0,0
1015744058,100065,33.44,0,317.99,-5.51,131.31,405.76,2928.96,-2611.82,2.01,1.34,0.67,639,634,0,0,0
1016763861,100065,33.44,0,319.08,-1.16,131.77,79.1,2871.09,-2534.18,5.31,0.18,-5.25,639,634,0,0,0
1017784694,100062,33.44,0,319.76,-2.57,135.33,183.11,2756.1,-2767.09,18.86,-4.94,-1.83,639,634,0,0,0
1018803385,100068,33.44,0,317.19,-1.1,135.7,50.54,2862.3,-2791.26,-2.81,0.73,7.2,639,634,0,0,0
1019823149,100065,33.44,0,318.21,-0.81,136.57,35.16,2659.42,-2813.96,0.24,2.26,-2.99,639,634,0,0,0
1020834535,100071,33.45,0,318.02,-0.21,137.02,-2.2,2667.48,-2819.09,-1.22,-1.59,1.71,638,638,0,0,0
1021854300,100078,33.45,0,316.71,-1.22,134.03,65.92,2819.82,-2689.45,2.44,0.49,0.18,638,638,0,0,0
1022874070,100071,33.45,0,318.12,-2.16,136.39,112.79,2703.37,-2838.13,2.01,3.54,-0.73,638,638,0,0,0
1023893867,100065,33.45,0,321.15,-4.99,131.13,315.67,2741.46,-2659.42,19.78,-5.74,-1.28,638,638,0,0,0
1024913692,100067,33.45,0,321.75,-1.01,136.07,103.27,2681.4,-2861.57,1.04,3.72,0.67,638,638,0,0,0
1025925147,100064,33.46,0,321.52,1.08,141.35,-59.33,2401.61,-3073.97,1.34,0.79,1.65,636,638,0,0,0
1026944901,100071,33.45,0,320.72,-0.21,139.44,45.41,2569.34,-2956.05,2.81,-0.67,-0.37,636,638,0,0,0
1027964670,100070,33.46,0,320.21,-0.07,141.74,27.1,2419.92,-3056.4,-1.04,1.1,1.04,636,638,0,0,0
1028984429,100064,33.46,0,320.54,1.39,142.16,-85.69,2374.51,-3085.69,-0.12,-1.16,-1.83,636,638,0,0,0
1030004163,100067,33.47,0,320.13,1.03,141.3,-73.97,2427.98,-3047.61,0.43,-1.65,1.53,636,638,0,0,0
1031014546,100069,33.46,0,320.19,-0.11,141.14,-9.52,2426.51,-3024.17,0.79,0.55,-1.28,638,629,0,0,0
1032034336,100069,33.47,0,320.82,0.59,141.45,-66.65,2421.39,-3027.1,-0.73,0.37,0.55,638,629,0,0,0
1033054142,100065,33.47,0,319.65,0.64,141.6,-78.37,2455.08,-3077.64,-1.71,-1.4,0.31,638,629,0,0,0
1034076448,100067,33.48,0,318.85,0.22,141.55,-28.56,2419.92,-3059.33,0.67,-0.85,1.04,638,629,0,0,0
1035096232,100069,33.48,0,317.19,-0.51,143.17,57.13,2349.61,-3109.13,-1.1,-2.62,4.94,638,629,0,0,0
1036107646,100070,33.48,0,314.72,-1.31,141.66,91.55,2433.84,-3053.47,0.79,2.5,-0.85,640,637,0,0,0
1037127423,100068,33.48,0,315.78,-1.78,140.04,158.94,2549.56,-2990.48,-0.98,1.53,-0.06,640,637,0,0,0
1038147212,100069,33.49,0,316.22,-1.74,139.31,100.34,2531.98,-2979.49,5.13,-0.79,-0.18,640,637,0,0,0
1039171638,100070,33.49,0,314.49,-1.62,144.28,140.62,2255.86,-3214.6,1.77,-0.67,0.43,640,637,0,0,0
1040186777,100069,33.49,0,312.24,-1.78,145.56,23.44,2251.46,-2744.38,-1.4,1.1,3.72,636,640,0,0,0
1041198134,100072,33.49,0,312.5,-4.49,146.25,295.9,2162.84,-3236.57,-0.31,0.92,-2.08,636,640,0,0,0
1042217895,100071,33.5,0,312.76,-3.79,145.79,134.03,2271.24,-3260.01,0.12,0.37,3.36,636,640,0,0,0
1043237715,100068,33.5,0,316.73,-2.18,141.09,622.56,2564.21,-2946.53,12.08,4.64,-14.83,636,640,0,0,0
1044257482,100068,33.5,0,334.54,-2.89,136.1,120.12,2732.67,-2985.35,6.1,10.8,-4.39,636,640,0,0,0
1045276242,100064,33.5,0,327.76,-3.45,139.72,305.42,2553.96,-2567.14,-14.16,-15.01,18.8,636,633,0,0,0
1046288667,100068,33.52,0,300.59,-2.48,146.81,454.1,2133.54,-2948,2.75,-14.71,28.26,636,633,0,0,0
1047308470,100073,33.51,0,277.22,-3.31,149.45,180.18,1976.07,-3131.84,-12.45,1.28,12.45,636,633,0,0,0
1048328234,100071,33.52,0,272.74,-6.64,147.77,388.18,2061.77,-3364.75,11.96,-5.68,7.39,636,633,0,0,0
1049348015,100072,33.52,0,262.49,-7.92,141.93,572.02,2431.64,-3090.82,-5.25,-1.53,4.52,636,633,0,0,0
1050364838,100071,33.53,0,260.27,-7.1,142.78,442.38,2388.43,-2673.34,-3.91,-2.38,0.79,639,638,0,0,0
1051383594,100067,33.53,0,261.13,-3.11,142.34,271,2357.67,-3132.57,-6.41,-1.34,-2.5,639,638,0,0,0
1052403317,100072,33.53,0,258.66,-3.01,143.41,229.25,2303.47,-3170.65,4.58,-4.46,4.76,639,638,0,0,0
1053423066,100063,33.53,0,243.04,-0.25,145.04,79.1,2208.25,-3191.16,-0.98,-15.75,22.83,639,638,0,0,0
1054442848,100071,33.54,0,217.02,-0.86,148.84,113.53,1973.14,-3347.17,5.13,-5.19,20.2,639,638,0,0,0
1055462583,100072,33.54,0,203.83,-4.36,145.36,285.64,2309.33,-3253.42,-4.82,3.3,-0.37,634,640,0,0,0
1056482235,100071,33.55,0,209.14,-3.67,146.2,287.84,2187.74,-3292.97,-4.27,-6.29,1.34,634,640,0,0,0
1057501967,100067,33.55,0,204.18,-9.49,140.39,719.24,2477.05,-3202.15,26.31,8.12,6.41,634,640,0,0,0
1058521699,100068,33.55,0,211.13,-5.25,141.18,269.53,2449.95,-3057.13,-2.69,3.54,-5.68,634,640,0,0,0
1059541432,100068,33.56,0,212.22,-5,141.39,331.05,2430.18,-3057.13,3.78,-2.62,-1.59,634,640,0,0,0
1060554252,100067,33.56,0,213,-4.02,141.9,261.47,2422.12,-3074.71,0.49,-1.59,1.04,637,640,0,0,0
1061571568,100073,33.56,0,212.61,-4.92,143.35,361.08,2421.39,-3199.22,1.53,0.85,-2.75,637,640,0,0,0
1062591367,100071,33.56,0,220.88,-4.46,142.36,341.31,2402.34,-3112.06,-1.04,4.88,-6.1,637,640,0,0,0
1063611156,100063,33.56,0,217.08,-4.45,145.01,257.08,2251.46,-3227.05,-0.85,-6.84,8.79,637,640,0,0,0
1064630924,100064,33.57,0,213.71,-7.1,141.9,497.31,2374.51,-3045.41,1.65,2.2,-3.54,637,640,0,0,0
1065645890,100071,33.57,0,227,-5.87,142.46,422.61,2375.98,-3076.9,-0.61,13.79,-18.68,637,633,0,0,0
1066662169,100069,33.57,0,262.08,-7.07,143.12,550.05,2210.45,-3218.99,5.8,22.22,-23.62,637,633,0,0,0
1067681961,100071,33.58,0,263.22,-2.91,149.95,215.33,1934.33,-3482.67,-1.1,-10.5,14.1,637,633,0,0,0
1068701737,100065,33.58,0,234.04,-3.57,152.1,226.32,2104.25,-3706.79,-14.89,-7.57,19.96,637,633,0,0,0
1069721517,100064,33.58,0,230.69,-7.75,141.93,588.13,2411.13,-3041.75,-12.02,11.29,-11.41,637,633,0,0,0
1070732908,100069,33.59,0,240.14,-3.74,138.3,276.12,2576.66,-2878.42,-3.3,-2.14,4.03,641,633,0,0,0
1071752728,100074,33.59,0,224.47,-0.73,146.15,27.83,2080.81,-3172.85,17.33,-11.66,6.29,641,633,0,0,0
1072772514,100076,33.6,0,217.46,-4.7,146.01,306.15,2206.05,-3262.94,-1.77,-5.07,-1.95,641,633,0,0,0
1073792287,100067,33.59,0,218.5,-2.18,147.21,110.6,2056.64,-3267.33,-6.16,-0.31,-1.28,641,633,0,0,0
1074812048,100073,33.6,0,218.84,-2.52,146.36,167.72,2151.86,-3253.42,-1.28,-0.85,0.06,641,633,0,0,0
1075823427,100061,33.6,0,218.25,-1.55,146.22,108.4,2195.8,-3250.49,0.24,0.18,1.1,636,634,0,0,0
1076843206,100070,33.6,0,217.96,-2.12,145.71,150.88,2226.56,-3241.7,-2.08,0.31,1.16,636,634,0,0,0
1077865477,100065,33.61,0,217.71,-1.95,145.04,120.85,2214.84,-3179.44,-0.06,0.12,0.37,636,634,0,0,0
1078885260,100068,33.61,0,217.83,-2.04,143.96,168.46,2299.07,-3167.72,-3.3,0.67,0.49,636,634,0,0,0
1079905042,100068,33.61,0,218.04,-1.49,143.78,96.68,2297.61,-3156.01,0.06,0,-0.49,636,634,0,0,0
1080924791,100068,33.61,0,217.76,-1.51,143.04,139.16,2333.5,-3098.14,-0.31,-0.12,0.85,630,634,0,0,0
1081944578,100069,33.62,0,218.06,-3.06,147.71,96.68,1966.55,-3375.73,18.43,4.33,1.95,630,634,0,0,0
1082964354,100068,33.62,0,224.96,-2.57,144.8,61.52,2110.11,-3196.29,-6.65,0,-12.57,630,634,0,0,0
1083984151,100072,33.63,0,235.21,-2.89,144.49,225.59,2145.26,-3257.08,8.79,-0.85,-0.98,630,634,0,0,0
1085003919,100067,33.63,0,226.47,-5.33,144,331.05,2252.2,-3221.92,2.93,-2.44,10.68,630,634,0,0,0
1086015349,100067,33.63,0,226.52,-6,142.21,427.73,2423.58,-3064.45,-8.54,0.79,-1.59,641,637,0,0,0
1087035061,100071,33.64,0,226.52,-6.12,139.83,400.63,2541.5,-2988.28,3.23,-1.59,0.73,641,637,0,0,0
1088054833,100067,33.64,0,225.82,-5.81,140.14,318.6,2493.16,-3086.43,-1.53,-0.49,0.24,641,637,0,0,0
1089074561,100063,33.64,0,224.43,-5.53,145.09,353.76,2206.05,-3158.94,7.08,2.56,-1.65,641,637,0,0,0
1090094312,100061,33.64,0,232,-5.74,139.56,517.82,2589.84,-2822.02,0.67,16.17,-13.73,641,637,0,0,0
1091104725,100068,33.64,0,256.71,-0.32,140.18,63.72,2437.5,-3043.95,-3.42,12.51,-15.26,631,634,0,0,0
1092124529,100063,33.65,0,264.97,1.14,134.79,-98.88,2650.63,-2664.55,10.25,-7.26,1.71,631,634,0,0,0
1093144302,100067,33.65,0,264.53,-1.14,139.04,101.07,2528.32,-2989.01,-8.42,3.36,2.69,631,634,0,0,0
1094164112,100067,33.65,0,258.91,-0.1,142.6,46.14,2393.55,-3066.65,1.28,-4.88,2.56,631,634,0,0,0
1095183909,100067,33.65,0,252.3,-2.47,140.05,214.6,2452.88,-3255.62,-1.83,-4.94,5.25,637,631,0,0,0
1096195310,100068,33.66,0,246.76,-1.24,139.73,111.33,2463.13,-2986.82,0.37,0,5.74,637,631,0,0,0
1097215099,100068,33.66,0,247.56,-1.07,138.58,86.43,2568.6,-2908.45,2.2,2.38,-4.94,637,631,0,0,0
1098234891,100065,33.67,0,251.37,-1.44,139.8,112.79,2507.81,-2963.38,2.81,-0.61,-2.26,637,631,0,0,0
1099254718,100071,33.67,0,253.24,-0.5,146.66,65.19,2199.46,-3371.34,13.55,-3.85,-2.44,637,631,0,0,0
1100273489,100073,33.67,0,255.96,2.41,172.25,-221.19,614.5,-3180.91,33.94,-10.13,-1.89,628,638,0,0,0
1101285907,100067,33.68,0,247.29,2.32,-159.53,83.5,-1625.24,-3962.4,30.4,-4.52,17.7,628,638,0,0,0
1102305746,100069,33.68,0,237.2,-1.2,-136.16,-34.42,-3057.13,-3240.97,-1.65,7.69,4.46,628,638,0,0,0
1103327628,100065,33.69,0,235.33,-2.84,-122.59,150.88,-3182.37,-2648.44,-20.57,-5.68,-5.74,628,638,0,0,0
1104347451,100064,33.7,0,235.93,-5.66,-123.91,419.68,-3071.04,-2348.88,-14.89,2.2,-0.12,628,638,0,0,0
1105366246,100065,33.7,0,239.05,-1.27,-127.03,137.7,-3393.31,-2630.13,0.92,-2.14,-2.81,631,635,0,0,0
1106378705,100069,33.71,0,240.49,-1.95,-126.57,175.78,-3321.53,-2446.29,2.44,0.92,0.73,631,635,0,0,0
1107398533,100063,33.72,0,239.04,-1.09,-126.63,74.71,-3303.96,-2465.33,3.17,0.73,0.85,631,635,0,0,0
1108418348,100076,33.73,0,238.41,-1.44,-127.13,86.43,-3279.79,-2521.73,0.85,-0.06,1.53,631,635,0,0,0
1109438149,100069,33.73,0,236.22,-1.67,-127.22,117.19,-3306.15,-2513.67,0.24,1.89,0.73,631,635,0,0,0
1110452942,100076,33.73,0,236.25,-3.17,-126.71,287.84,-3194.09,-2661.62,3.85,-0.49,-2.87,636,640,0,0,0
1111469950,100071,33.75,0,234.51,-2.89,-132.68,172.12,-3043.95,-2715.09,0.61,6.23,5.55,636,640,0,0,0
1112489725,100069,33.75,0,226.18,-6.19,-132.39,481.2,-2755.37,-2880.62,14.65,9.4,0.92,636,640,0,0,0
1113509485,100071,33.75,0,219.37,-3.47,-134.8,217.53,-2824.22,-2823.49,-9.7,-3.23,1.89,636,640,0,0,0
1114529234,100074,33.76,0,229.84,4.75,-144.25,-307.62,-2038.33,-3095.21,14.89,-2.87,-5.98,636,640,0,0,0
1115542022,100071,33.76,0,231.39,6.42,-164.7,-533.94,-666.5,-3659.91,24.41,-7.93,-6.04,641,641,0,0,0
1116559439,100070,33.77,0,234.91,8.07,-160.79,-658.45,-1678.71,-3539.06,-17.09,-8.67,2.69,641,641,0,0,0
1117579203,100071,33.77,0,234.9,5.43,-156.77,-241.7,-1588.62,-3810.06,-13.61,-1.53,-2.32,641,641,0,0,0
1118599034,100062,33.78,0,235.06,11.91,-158.6,-811.52,-1469.97,-3743.41,-6.16,0.73,-7.02,641,641,0,0,0
1119618865,100068,33.78,0,237.13,13.27,-156.58,-839.36,-1485.35,-3780.76,-16.97,0.55,7.57,641,641,0,0,0
1120631735,100067,33.78,0,238.48,7.15,-175.7,-586.67,-274.66,-4050.29,-3.05,13.79,-3.66,629,631,0,0,0
1121652574,100071,33.79,0,235.92,10.5,-170.86,-771.97,-740.48,-3829.1,-12.02,6.47,2.75,629,631,0,0,0
1122672355,100074,33.8,0,236.32,5.96,-174.39,-432.13,-309.08,-3949.22,3.3,9.52,-2.93,629,631,0,0,0
1123692142,100065,33.8,0,236.18,3.39,-173.48,-221.19,-498.05,-4003.42,0.49,-0.24,1.34,629,631,0,0,0
1124711962,100073,33.8,0,235.67,6.19,-172.65,-489.99,-566.89,-3900.15,-5.31,-1.95,2.01,629,631,0,0,0
1125725921,100070,33.81,0,237.26,-2.7,-179.88,285.64,-85.69,-3943.36,-4.94,-5.62,-7.02,640,633,0,0,0
1126743189,100069,33.81,0,238.43,-2.52,-177.39,171.39,-102.54,-4075.2,8.06,-7.69,3.42,640,633,0,0,0
1127763000,100070,33.82,0,236.66,-0.95,179.88,56.4,8.06,-4059.08,2.08,5.8,-2.5,640,633,0,0,0
1128782853,100072,33.82,0,235.89,-2.92,-179.79,176.51,-8.79,-3991.7,1.95,1.22,1.4,640,633,0,0,0
1129802679,100064,33.82,0,236.59,-2.24,-179.44,181.64,-61.52,-3991.7,0.49,-2.93,-2.32,640,633,0,0,0
1130814082,100065,33.83,0,239.88,-0.5,-179.88,35.16,-13.18,-4029.05,0.43,0.92,-2.26,640,636,0,0,0
1131833888,100064,33.84,0,239.89,-4.66,-177,221.19,-102.54,-3941.89,44.01,6.47,1.53,640,636,0,0,0
1132853718,100068,33.84,0,242.89,-2.42,-158.65,24.17,-2233.89,-3957.28,30.27,2.08,4.39,640,636,0,0,0
1133873510,100068,33.85,0,234.96,-0.21,-142.43,-148.68,-2589.84,-3147.95,-2.26,3.97,4.58,640,636,0,0,0
1134893302,100059,33.86,0,236.63,-0.94,-141.9,-27.1,-2630.86,-3359.62,5,0.79,-4.94,640,636,0,0,0
1135904693,100071,33.86,0,241.48,-1.46,-128.64,158.2,-3248.29,-2468.99,39.79,-11.66,-1.77,640,639,0,0,0
1136924425,100076,33.88,0,260.13,-1.16,-111.25,-10.25,-3697.27,-1295.65,14.16,-24.48,-4.27,640,639,0,0,0
1137944174,100070,33.88,0,284.75,-4.38,-109.57,-190.43,-3794.68,-1651.61,14.77,-17.46,0.12,640,639,0,0,0
1138963954,100074,33.89,0,308.98,-1.65,-103.82,93.02,-4071.53,-837.89,-5.31,-15.75,-7.08,640,639,0,0,0
1139988431,100063,33.88,0,319.91,-4.1,-103.17,183.11,-3926.51,-1111.82,-5,-7.26,3.6,640,639,0,0,0
1140998873,100074,33.89,0,330.09,-5.06,-108.36,503.17,-3956.54,-1004.88,-8.24,-10.99,8.24,639,639,0,0,0
1142018644,100070,33.89,0,329.2,-2.79,-108.07,249.02,-4042.24,-1448,-8.61,3.72,-2.14,639,639,0,0,0
1143038384,100068,33.89,0,327.67,-1.31,-115.98,13.18,-3748.54,-1801.03,-3.17,13.24,3.17,639,639,0,0,0
1144058160,100070,33.9,0,322.87,-0.96,-113.36,139.89,-3660.64,-1837.65,6.9,-8.85,1.71,639,639,0,0,0
1145077951,100070,33.9,0,328.34,-2.09,-111.69,251.95,-4082.52,-1246.58,-12.08,0.55,-2.87,639,639,0,0,0
1146097767,100074,33.91,0,333.36,-1.88,-110.93,141.36,-3891.36,-1548.34,-10.07,-4.7,2.08,640,636,0,0,0
1147117455,100064,33.91,0,343.1,-5.36,-109.87,331.05,-3897.22,-1358.64,1.83,-6.04,-11.6,640,636,0,0,0
1148137280,100071,33.91,0,345.27,-5.23,-112.48,306.15,-3837.89,-1563.72,-5.43,2.5,7.81,640,636,0,0,0
1149157093,100070,33.91,0,347.97,-9.13,-105.89,616.7,-4134.52,-1196.04,23.5,-13,-4.46,640,636,0,0,0
1150176907,100070,33.92,0,2.34,-1.38,-110.95,60.79,-3864.99,-1229,19.41,-17.52,-6.47,640,636,0,0,0
1151188432,100062,33.92,0,13.11,-5.24,-109.96,107.67,-4130.13,-1471.44,-5.25,-6.35,-0.61,633,634,0,0,0
1152208233,100072,33.93,0,13.48,1.46,-107.54,-99.61,-3938.96,-1255.37,17.4,3.6,1.53,633,634,0,0,0
1153229639,100064,33.93,0,9.54,1.1,-104.96,-140.62,-4094.24,-1135.25,-9.22,-1.28,3.05,633,634,0,0,0
1154247854,100062,33.93,0,6.18,-1.16,-115.45,167.72,-3845.21,-1801.76,-9.28,6.04,6.35,633,634,0,0,0
1155270632,100062,33.93,0,354.9,-2.69,-117.12,186.04,-3741.21,-2323.97,7.26,10.07,-2.5,640,637,0,0,0
1156279103,100065,33.94,0,356.54,-2.26,-115.2,119.38,-3778.56,-1801.03,1.22,-9.34,0.55,640,637,0,0,0
1157303638,100070,33.95,0,359.01,-2.73,-115.05,123.05,-3867.92,-1461.18,7.02,1.89,-5.74,640,637,0,0,0
1158323439,100063,33.95,0,357.42,-5.91,-113.43,499.51,-3777.1,-1570.31,8.06,3.85,-1.34,640,637,0,0,0
1159343248,100065,33.95,0,355.94,-7.13,-112.96,266.6,-3750,-1512.45,-8.3,-4.15,0.67,640,637,0,0,0
1160360413,100068,33.96,0,357.59,-7.03,-110.02,355.22,-3952.15,-1133.79,-2.32,-2.75,-4.46,640,638,0,0,0
1161374863,100068,33.96,0,0.35,-5.96,-106.03,539.06,-3925.05,-1053.22,4.46,0.12,3.3,640,638,0,0,0
1162394658,100064,33.97,0,358.99,-7.15,-102.38,412.35,-3956.54,-925.78,21.91,5.25,-3.05,640,638,0,0,0
1163414694,100069,33.97,0,359.09,-6.01,-102.77,430.66,-4115.48,-886.96,3.78,-0.37,-0.37,640,638,0,0,0
1164434259,100067,33.97,0,0.04,-5.6,-103.46,407.23,-4115.48,-960.94,-2.69,-5.19,5.68,640,638,0,0,0
1165450066,100063,33.98,0,2.02,-9.58,-105.54,689.21,-3985.11,-749.27,2.62,5.68,-14.04,640,636,0,0,0
1166465768,100060,33.98,0,3.16,-5.96,-105.98,394.04,-4005.62,-1155.76,-5.19,-0.79,5.68,640,636,0,0,0
1167485526,100063,33.98,0,2.29,-6.66,-106.53,603.52,-3990.23,-1093.51,0.73,1.83,0.85,640,636,0,0,0
1168505278,100068,33.98,0,352.76,-4.02,-107.67,284.18,-3921.39,-1331.54,4.09,13.73,5,640,636,0,0,0
1169525029,100061,33.98,0,338.46,-7.94,-106,579.35,-4068.6,-1271.48,-1.53,11.23,2.99,640,636,0,0,0
1170538874,100063,33.99,0,328.55,-6.01,-103.94,361.82,-4013.67,-1008.54,7.45,10.56,0.85,633,634,0,0,0
1171555193,100067,33.99,0,326.31,-5.25,-106.91,333.25,-4005.62,-1082.52,10.56,-3.17,-0.61,633,634,0,0,0
1172574961,100059,34,0,330.47,-6.38,-105.55,520.75,-4015.87,-1037.11,-0.55,-3.23,-3.85,633,634,0,0,0
1173594800,100059,34.01,0,333.4,-8.44,-103.22,615.97,-4114.75,-991.7,-1.77,1.77,5.49,633,634,0,0,0
1174614584,100055,34.01,0,325.41,0.15,-108.43,11.72,-3915.53,-1345.46,3.72,5.68,-1.16,633,634,0,0,0
1175631713,100062,34.01,0,326.26,-4.19,-106.42,323,-3994.63,-1210.69,-2.44,-2.56,1.59,638,635,0,0,0
1176649964,100059,34.01,0,327.89,-1.07,-108.48,77.64,-3947.02,-1278.08,-3.11,-4.33,-1.83,638,635,0,0,0
1177669778,100060,34.01,0,333.86,-7.48,-107.63,591.06,-3977.05,-1262.7,-4.15,-0.49,-6.23,638,635,0,0,0
1178689560,100067,34.02,0,341.25,-2.78,-112.35,377.93,-3777.83,-1894.04,15.44,-13.98,-0.55,638,635,0,0,0
1179709374,100062,34.03,0,343.58,-6.99,-109.78,684.81,-4277.34,-1434.08,4.82,9.89,2.2,638,635,0,0,0
1180720769,100065,34.03,0,334.1,-5.37,-104.71,371.34,-3979.98,-1088.38,-4.09,0.98,3.97,636,628,0,0,0
1181740548,100062,34.03,0,336.67,-5.45,-106.51,427.73,-4018.8,-1175.54,0.61,-2.93,0.06,636,628,0,0,0
1182760349,100057,34.04,0,336.76,-4.59,-107.6,314.21,-4014.4,-1278.08,2.62,1.46,-2.69,636,628,0,0,0
1183780166,100057,34.04,0,337.04,-5.29,-106.62,377.93,-4022.46,-1193.85,-1.46,-1.16,1.46,636,628,0,0,0
1184799968,100061,34.05,0,337.09,-5.13,-105.56,399.9,-3993.9,-1088.38,-2.26,0.61,-0.79,636,628,0,0,0
1185811419,100062,34.05,0,335.68,-6.86,-104.7,504.64,-4046.63,-1066.41,6.47,3.17,-1.4,638,634,0,0,0
1186831168,100060,34.06,0,335.31,-5.43,-104.32,407.23,-4037.84,-1013.67,-1.83,0.12,0.73,638,634,0,0,0
1187850941,100075,34.06,0,336.14,-5.75,-103.91,424.07,-4036.38,-1008.54,-4.15,-2.2,0.73,638,634,0,0,0
1188870805,100061,34.07,0,337.21,-5.87,-103.87,445.31,-4056.15,-1020.26,-0.24,0.67,-0.18,638,634,0,0,0
1189890618,100054,34.07,0,336.66,-5.84,-103.38,427.73,-4067.87,-949.95,-0.55,-0.79,1.04,638,634,0,0,0
1190902075,100060,34.08,0,339.87,-5.54,-101.04,371.34,-4034.91,-684.08,11.17,-4.03,-3.17,633,637,0,0,0
1191921879,100068,34.08,0,338.27,-2.9,-102.87,150.88,-3931.64,-895.75,-6.1,4.76,9.89,633,637,0,0,0
1192941612,100064,34.09,0,333.12,-5.48,-97.97,372.8,-4096.44,-659.91,-5.25,-0.31,3.42,633,637,0,0,0
1193965446,100067,34.09,0,331.13,-5.97,-97.9,439.45,-4155.76,-574.22,-1.71,0.18,-1.83,633,637,0,0,0
1194985164,100063,34.1,0,331.48,-5.9,-98.35,432.13,-4164.55,-623.29,-2.32,0.55,-1.28,633,637,0,0,0
1195995554,100056,34.1,0,332,-6.08,-98.88,456.3,-4119.14,-626.22,0.85,-1.46,-0.61,631,640,0,0,0
1197015324,100068,34.12,0,333.67,-5.61,-98.02,396.97,-4149.17,-599.12,1.22,0.31,0.73,631,640,0,0,0
1198035116,100067,34.11,0,333.63,-6.62,-97.42,489.99,-4128.66,-528.08,-1.28,-1.4,0.24,631,640,0,0,0
1199054896,100059,34.11,0,334.35,-6.72,-97.22,471.68,-4133.06,-527.34,2.87,1.22,-0.18,631,640,0,0,0
1200074669,100059,34.11,0,332.5,-7.15,-97.4,536.87,-4142.58,-531.74,-0.55,1.28,-0.18,631,640,0,0,0
1201086073,100063,34.12,0,332.7,-7.88,-96.48,557.37,-4108.15,-492.92,2.2,-0.06,-0.49,638,631,0,0,0
1202105877,100059,34.13,0,332.52,-6.55,-97.3,479.74,-4095.7,-555.91,0.98,-1.34,1.22,638,631,0,0,0
1203125676,100060,34.13,0,339.13,-5.92,-96.35,431.4,-4166.75,-492.19,2.14,-4.46,-1.34,638,631,0,0,0
1204145517,100060,34.13,0,338.43,-6.78,-95.38,471.68,-4141.85,-356.69,2.01,1.53,-2.32,638,631,0,0,0
1205165327,100057,34.13,0,338.17,-6.22,-96.15,446.04,-4109.62,-438.72,1.59,0.98,-0.73,638,631,0,0,0
1206176850,100061,34.14,0,337.44,-6.97,-95.95,476.81,-4154.3,-375.73,3.11,0.55,-0.85,632,638,0,0,0
1207196682,100061,34.14,0,337.9,-6.97,-95.33,514.16,-4159.42,-391.85,-0.24,0.31,-0.98,632,638,0,0,0
1208216528,100065,34.15,0,337.28,-6.41,-95.23,444.58,-4189.45,-402.1,-2.2,2.62,0.37,632,638,0,0,0
1209236321,100062,34.15,0,336.24,-7.26,-95.61,511.23,-4119.87,-413.82,0.98,-0.31,-0.12,632,638,0,0,0
1210256062,100061,34.16,0,336.15,-6.36,-95.77,391.11,-4067.87,375.73,0.06,0.85,0.06,630,627,0,0,0
1211270630,100059,34.16,0,335.57,-8.68,-95.94,630.62,-4141.11,-405.03,-0.61,-0.06,-0.43,630,627,0,0,0
1212290419,100064,34.16,0,335.03,-7.68,-97.17,556.64,-4086.91,-536.87,-0.85,-0.06,0.55,630,627,0,0,0
1213310666,100062,34.17,0,334.25,-6.97,-95.68,510.5,-4023.19,-464.36,2.69,-0.43,1.4,630,627,0,0,0
1214329953,100065,34.17,0,335.25,-6.95,-95.62,484.86,-4094.97,-323.73,4.64,1.22,-0.55,630,627,0,0,0
1215351635,100068,34.18,0,332.88,-6.45,-96.8,517.09,-4090.58,-1224.61,-0.67,2.26,-0.37,641,637,0,0,0
1216369522,100060,34.18,0,330.25,-7.38,-99.91,502.44,-4101.56,-715.58,3.91,0.61,0.85,641,637,0,0,0
1217389307,100062,34.19,0,332.08,-7.29,-98.59,520.75,-4090.58,-588.13,-0.61,-2.93,-0.55,641,637,0,0,0
1218409083,100067,34.19,0,333.14,-6.27,-99.35,449.71,-4097.17,-662.84,-3.78,0.55,1.28,641,637,0,0,0
1219428858,100068,34.19,0,332.64,-7.5,-98.96,537.6,-4096.44,-608.64,5.37,-0.18,-0.79,641,637,0,0,0
1220444643,100063,34.2,0,331.84,-6.93,-100.04,544.19,-4118.41,-1360.11,0.73,0.67,-1.59,638,637,0,0,0
1221460431,100067,34.2,0,332.38,-6.95,-99.28,503.17,-4079.59,-665.77,-2.38,-2.01,1.16,638,637,0,0,0
1222480147,100061,34.2,0,333.85,-7.01,-99.77,534.67,-4079.59,-729.49,-2.32,1.22,0.85,638,637,0,0,0
1223499879,100062,34.21,0,332.81,-7.39,-99.04,520.75,-4113.28,-653.32,-0.12,-0.18,1.89,638,637,0,0,0
1224519633,100068,34.21,0,332.12,-6.44,-99.27,470.21,-4116.94,-671.63,0.43,0.73,0.12,638,637,0,0,0
1225539364,100065,34.22,0,331.31,-5.56,-99.45,381.59,-4103.76,-696.53,1.83,1.83,0.12,640,638,0,0,0
1226559048,100055,34.22,0,330.36,-5.82,-99.79,437.99,-4125,-737.55,0.79,-0.18,-0.43,640,638,0,0,0
1227569399,100068,34.22,0,330.6,-6.52,-99.36,495.12,-4138.18,-677.49,0.12,0.85,0.06,640,638,0,0,0
1228589151,100060,34.23,0,329.64,-5.84,-99.74,430.66,-4126.46,-730.96,-2.08,0.31,0.98,640,638,0,0,0
1229608911,100064,34.23,0,330.22,-6.21,-100.07,466.55,-4062.74,-739.75,-0.79,-1.16,-0.24,640,638,0,0,0
1230621847,100060,34.24,0,329.96,-6.89,-99.71,493.65,-4116.94,-705.32,0.37,0.31,-0.24,638,637,0,0,0
1231640083,100057,34.24,0,330.38,-6.62,-99.88,463.62,-4102.29,-716.31,0.24,-0.31,-0.61,638,637,0,0,0
1232659887,100061,34.24,0,330.06,-6.84,-99.23,478.27,-4127.93,-643.07,-0.79,1.34,0.92,638,637,0,0,0
1233679691,100064,34.25,0,323.24,-5.6,-97.47,478.27,-4201.9,-662.84,-9.16,8.91,3.17,638,637,0,0,0
