time_us,pressure_pa,temp,altitude,fakeYaw,fakePitch,fakeRoll,ax,ay,az,wx,wy,wz,cont_drogue,cont_main,state,fired_main_us,fired_drogue_us
4747449,99825,24.11,0,0,0.45,-0.04,-1001.22,-82.03,71.78,-0.06,-0.06,0.06,0,0,0,0,0
4758436,99825,24.11,0,0,6.69,-0.5,-1001.22,-73.97,66.65,0,0.12,0,0,0,0,0,0
4768535,99825,24.11,0,0,12.33,-0.94,-1005.62,-76.9,68.12,0.18,0.31,0.06,0,0,0,0,0
4778623,99825,24.11,0,0,17.8,-1.38,-1002.69,-74.71,72.51,0.12,0.12,0.06,0,0,0,0,0
4788734,99825,24.11,0,0,23.09,-1.78,-1004.15,-67.38,72.51,0.24,0.12,0.06,0,0,0,0,0
4798765,99827,24.13,0,0,28.09,-2.2,-1001.95,-68.12,76.9,0,0.06,0,0,0,0,0,0
4808867,99827,24.13,0,0,32.9,-2.64,-1001.95,-68.85,65.92,-0.06,0.06,0,0,0,0,0,0
4818988,99827,24.13,0,0,37.4,-3.15,-1001.95,-75.44,74.71,-0.12,0.18,0,0,0,0,0,0
4829118,99827,24.13,0,0,41.61,-3.72,-1001.22,-79.1,71.78,-0.24,0.06,-0.06,0,0,0,0,0
4839241,99827,24.13,0,0,45.5,-4.33,-1002.69,-81.3,74.71,-0.31,-0.06,-0.12,0,0,0,0,0
4849697,99828,24.15,0,0,49.24,-4.92,-1003.42,-72.51,69.58,-0.06,0.12,0,0,0,0,0,0
5785148,99829,24.36,0,0,84.26,-45.14,-1002.69,-76.17,76.17,-0.18,-0.06,0,0,0,0,0,0
6801215,99833,24.42,0,0,84.43,-45.38,-1004.15,-58.59,69.58,0.49,-0.43,0.12,0,0,0,0,0
7822994,99831,24.46,0,-0.19,84.38,-44.6,-1010.01,-128.17,59.33,-0.18,-0.61,0.49,0,0,0,0,0
8844804,99831,24.5,0,-0.97,84.32,-45.89,-974.12,-87.89,131.1,-2.14,0.43,-1.16,0,0,0,0,0
9866350,99823,24.54,0,-0.77,84.45,-45,-1000.49,-70.31,65.92,-0.55,-0.12,-0.98,0,0,0,0,0
10887924,99826,24.58,0,-0.63,84.39,-44.81,-1002.69,-71.04,80.57,0.06,0.37,-0.43,0,1,0,0,0
11909747,99824,24.62,0,-0.33,84.53,-44.41,-1007.81,-69.58,77.64,-0.24,-0.31,-0.55,0,1,0,0,0
12931094,99822,24.65,0,-0.33,84.5,-44.33,-1006.35,-62.99,74.71,0.06,0.31,-0.37,0,1,0,0,0
13952628,99823,24.69,0,-1.1,84.44,-45.05,-1001.95,-73.97,78.37,0.24,0,-0.24,0,1,0,0,0
14974080,99832,24.73,0,-1.55,84.5,-45.42,-1003.42,-69.58,69.58,-0.06,-0.06,0,0,1,0,0,0
15995920,99832,24.77,0,-1.52,84.5,-45.33,-1003.42,-69.58,71.78,-0.06,0.18,-0.31,0,0,0,0,0
17017374,99835,24.81,0,-2.12,84.43,-45.88,-1003.42,-70.31,77.64,0.12,-0.24,-0.24,0,0,0,0,0
18039068,99829,24.84,0,-2.12,84.46,-45.81,-999.76,-75.44,69.58,0.12,-0.31,0.18,0,0,0,0,0
19060852,99827,24.87,0,-1.81,84.44,-45.44,-1002.69,-67.38,73.24,0,0,0.12,0,0,0,0,0
20082578,99831,24.91,0,-1.69,84.47,-45.26,-1003.42,-73.97,72.51,-0.18,0.12,-0.31,0,0,0,0,0
21104515,99834,24.94,0,-1.94,84.48,-45.46,-1001.95,-73.97,82.03,-0.12,0.18,0,0,0,0,0,0
22126108,99824,24.97,0,-2.38,84.5,-45.85,-1003.42,-66.65,61.52,0.06,0,-0.06,0,0,0,0,0
23147668,99834,25,0,-2.38,84.45,-45.82,-1001.22,-70.31,73.24,0,0.31,-0.18,0,0,0,0,0
24169046,99836,25.04,0,-2.45,84.46,-45.81,-999.02,-73.24,79.83,-0.06,-0.37,0,0,0,0,0,0
25190531,99825,25.08,0,-2.58,84.45,-45.89,-1004.88,-65.92,68.85,-0.12,-0.06,0.06,0,1,0,0,0
26212273,99824,25.11,0,-2.42,84.45,-45.64,-1005.62,-77.64,70.31,-0.24,0.18,-0.12,0,1,0,0,0
27235323,99825,25.14,0,-2.61,84.42,-45.8,-1001.22,-73.97,76.9,0.24,0.18,0,0,1,0,0,0
28257135,99826,25.17,0,-3.03,84.46,-46.22,-1003.42,-71.78,69.58,-0.24,0,0.18,0,1,0,0,0
29279474,99829,25.21,0,-2.77,84.45,-45.81,-1003.42,-70.31,72.51,-0.06,0.12,0.12,0,1,0,0,0
30301392,99828,25.24,0,-2.58,84.52,-45.52,-1004.15,-69.58,68.85,0.06,-0.24,0.12,0,0,0,0,0
31323437,99828,25.26,0,-2.53,84.49,-45.43,-1007.81,-76.9,65.92,0,0.18,0.06,0,0,0,0,0
32345392,99824,25.29,0,-2.85,84.5,-45.66,-1004.88,-90.82,61.52,-0.73,0.24,0,0,0,0,0,0
33367123,99827,25.32,0,-2.72,84.47,-45.51,-1002.69,-65.92,72.51,0.06,0.18,-0.12,0,0,0,0,0
34389126,99826,25.35,0,-3.03,84.48,-45.75,-996.83,-73.24,70.31,0.18,-0.06,0.06,0,0,0,0,0
35411245,99827,25.39,0,-2.7,84.48,-45.36,-1002.69,-69.58,69.58,0.06,0.12,0,0,0,0,0,0
36433228,99833,25.42,0,-3.09,84.46,-45.73,-1001.22,-70.31,78.37,-0.06,0.12,-0.12,0,0,0,0,0
37454995,99833,25.44,0,-3.06,84.47,-45.64,-1007.08,-71.04,80.57,-0.18,-0.18,-0.06,0,0,0,0,0
38476791,99830,25.47,0,-3.19,84.5,-45.73,-1005.62,-60.79,71.04,0.12,-0.12,-0.12,0,0,0,0,0
39498384,99828,25.5,0,-3.5,84.48,-45.98,-1000.49,-69.58,72.51,0.12,0,-0.12,0,0,0,0,0
40520195,99829,25.52,0,-3.6,84.46,-46.01,-1003.42,-76.9,66.65,0.18,0,-0.06,0,0,0,0,0
41541338,99824,25.55,0,-3.37,84.47,-45.7,-1000.49,-76.9,66.65,0,0.24,-0.24,0,0,0,0,0
42563498,99823,25.57,0,-3.11,84.48,-45.39,-1007.81,-74.71,70.31,0.06,-0.12,-0.37,0,0,0,0,0
43585599,99825,25.6,0,-3.65,84.53,-45.86,-1004.88,-71.78,63.72,-0.06,-0.06,0,0,0,0,0,0
44607363,99826,25.62,0,-3.06,84.55,-45.18,-1005.62,-68.12,71.04,0,0.18,0.12,0,0,0,0,0
45629264,99821,25.64,0,-3.44,84.53,-45.48,-1002.69,-73.24,72.51,0.37,0,0,0,1,0,0,0
46650976,99822,25.67,0,-2.93,84.54,-44.83,-1005.62,-65.19,79.1,0.37,0.18,0,0,1,0,0,0
47673041,99822,25.7,0,-3.13,84.56,-44.99,-1000.49,-75.44,79.83,0,-0.06,0.06,0,1,0,0,0
48694807,99820,25.72,0,-3.69,84.53,-45.5,-1003.42,-68.12,71.04,0.31,-0.18,0.06,0,1,0,0,0
49716466,99819,25.74,0,-3.33,84.55,-45.08,-1004.88,-60.79,62.26,0.24,0,0,0,1,0,0,0
50738455,99818,25.76,0,-2.89,84.53,-44.57,-1001.22,-61.52,71.04,0.18,0.06,0.12,0,0,0,0,0
51763409,99812,25.79,0,-2.98,84.57,-44.56,-1001.95,-57.13,66.65,-0.06,-0.18,-0.12,0,0,0,0,0
52785525,99822,25.81,0,-3.51,84.52,-45.06,-1004.88,-76.17,79.1,-0.43,0.12,0,0,0,0,0,0
53807209,99824,25.83,0,-3.88,84.52,-45.39,-1007.08,-62.99,71.78,0.24,0.24,-0.12,0,0,0,0,0
54829224,99818,25.85,0,-3.62,84.5,-45.07,-1001.95,-75.44,76.9,0,0,-0.24,0,0,0,0,0
55850916,99824,25.88,0,-3.93,84.51,-45.32,-1005.62,-74.71,64.45,0,0.12,0.06,0,0,0,0,0
56872990,99820,25.9,0,-4.29,84.51,-45.62,-1006.35,-75.44,65.19,0.37,0.24,-0.06,0,0,0,0,0
57895022,99817,25.92,0,-4.27,84.48,-45.54,-1004.15,-73.97,76.9,0.18,0.12,0,0,0,0,0,0
58919686,99820,25.95,0,-4.42,84.51,-45.63,-999.76,-76.17,75.44,-0.06,-0.12,-0.06,0,0,0,0,0
59939094,99819,25.97,0,-4.07,84.46,-45.2,-1004.88,-79.83,73.24,-0.67,0.43,0,0,0,0,0,0
60961100,99824,26,0,-4.47,84.46,-45.54,-999.02,-75.44,76.17,0.49,-0.31,-0.31,0,0,0,0,0
61982938,99819,26.02,0,-4.83,84.48,-45.78,-1004.88,-75.44,66.65,0.06,-0.24,-0.12,0,0,0,0,0
63005877,99823,26.04,0,-4.68,84.47,-45.58,-1004.15,-76.17,68.85,-0.12,0.18,0,0,0,0,0,0
64027757,99823,26.06,0,-4.94,84.5,-45.79,-1004.15,-70.31,71.04,0.49,-0.18,0,0,0,0,0,0
65049853,99820,26.09,0,-4.61,84.51,-45.42,-1005.62,-66.65,65.19,0.24,-0.24,0,0,0,0,0,0
66071523,99818,26.11,0,-4.28,84.46,-45.01,-1002.69,-70.31,74.71,-0.18,0.37,0,0,0,0,0,0
67093496,99816,26.13,0,-4.35,84.45,-45.01,-1004.15,-69.58,76.17,0,0.06,-0.06,0,0,0,0,0
68115625,99823,26.15,0,-5.11,84.47,-45.72,-1001.95,-68.12,79.1,0.18,-0.12,-0.06,0,0,0,0,0
69137820,99822,26.17,0,-5.28,84.48,-45.84,-1001.95,-71.78,68.85,-0.06,0.06,0,0,0,0,0,0
70159449,99822,26.19,0,-5.14,84.52,-45.59,-1007.81,-60.06,72.51,0.18,-0.18,0.18,0,0,0,0,0
71181718,99822,26.21,0,-5.03,84.52,-45.4,-1004.88,-64.45,65.92,0.31,0.12,-0.06,0,0,0,0,0
72203515,99821,26.22,0,-4.97,84.51,-45.25,-1006.35,-71.78,73.97,0.55,0.12,0.12,0,0,0,0,0
73225565,99820,26.24,0,-5.02,84.51,-45.2,-1004.15,-70.31,73.24,-0.18,0.31,0.12,0,0,0,0,0
74247489,99821,26.26,0,-5.25,84.53,-45.36,-1002.69,-72.51,74.71,-0.31,0.06,-0.12,0,0,0,0,0
75269306,99822,26.28,0,-5.28,84.48,-45.37,-1001.95,-79.83,66.65,0.06,0.12,-0.18,0,0,0,0,0
76291273,99818,26.3,0,-4.95,84.52,-44.92,-1005.62,-62.26,65.19,-0.12,-0.12,-0.18,0,0,0,0,0
77313324,99823,26.32,0,-5.28,84.5,-45.19,-1003.42,-49.07,75.44,0.18,-0.06,-0.06,0,0,0,0,0
78335187,99821,26.34,0,-5.58,84.5,-45.44,-1001.22,-83.5,58.59,-0.49,0.24,-0.06,0,0,0,0,0
79357166,99826,26.36,0,-5.93,84.49,-45.73,-1006.35,-88.62,81.3,0.24,-0.06,-0.31,0,0,0,0,0
80379018,99830,26.39,0,-5.62,84.48,-45.36,-1003.42,-74.71,65.19,-0.55,0,-0.18,0,0,0,0,0
81400784,99822,26.4,0,-5.32,84.47,-45.02,-1007.08,-73.24,78.37,-0.31,0.43,0.06,0,0,0,0,0
82422759,99822,26.42,0,-5.7,84.48,-45.31,-1007.81,-69.58,65.19,-0.55,-0.12,0,0,0,0,0,0
83444530,99816,26.44,0,-5.32,84.47,-44.81,-999.02,-65.92,72.51,0,0.12,0.12,0,0,0,0,0
84466654,99820,26.46,0,-5.42,84.48,-44.87,-1002.69,-69.58,79.83,0.43,0,-0.18,0,0,0,0,0
85488591,99815,26.48,0,-5.7,84.5,-45.08,-1004.15,-69.58,68.85,0.18,-0.31,-0.37,0,0,0,0,0
86510508,99816,26.49,0,-5.45,84.49,-44.85,-1000.49,-62.26,60.06,-0.43,0.06,0,0,0,0,0,0
87532494,99816,26.51,0,-5.47,84.46,-44.83,-1001.22,-71.04,68.85,0.06,0.12,-0.06,0,0,0,0,0
88554631,99814,26.53,0,-5.42,84.5,-44.7,-1010.01,-67.38,66.65,0.12,0.18,-0.12,0,0,0,0,0
89576513,99818,26.54,0,-5.46,84.52,-44.69,-1001.22,-75.44,68.12,0.12,0.12,-0.12,0,0,0,0,0
90598334,99812,26.56,0,-5.37,84.56,-44.51,-1002.69,-70.31,66.65,-0.06,-0.61,-0.06,0,0,0,0,0
91620141,99815,26.58,0,-5.66,84.61,-44.7,-1007.08,-66.65,49.8,-0.18,-0.06,0.18,0,0,0,0,0
92642179,99818,26.59,0,-5.66,84.53,-44.66,-998.29,-70.31,68.85,0,0.24,-0.12,0,0,0,0,0
93664102,99820,26.62,0,-5.89,84.51,-44.8,-1004.15,-76.9,80.57,-0.18,-0.18,0,0,0,0,0,0
94685997,99824,26.63,0,-5.98,84.54,-44.82,-1002.69,-71.04,72.51,0.12,0.12,-0.43,0,0,0,0,0
95707540,99818,26.65,0,-6.31,84.52,-45.08,-1004.15,-66.65,65.92,0.18,0.12,-0.18,0,0,0,0,0
96729529,99820,26.67,0,-6.19,84.53,-44.9,-1006.35,-65.19,69.58,0.12,0.18,0.24,0,0,0,0,0
97751300,99820,26.69,0,-5.72,84.53,-44.35,-1001.95,-57.86,74.71,0.18,0.06,0.12,0,0,0,0,0
98773085,99823,26.7,0,-6.12,84.57,-44.67,-1008.54,-54.2,68.85,0,-0.06,-0.24,0,0,0,0,0
99798188,99826,26.72,0,-6.61,84.54,-45.07,-1004.15,-70.31,62.26,-0.18,0.18,-0.24,0,0,0,0,0
100820528,99821,26.73,0,-7.04,84.52,-45.46,-997.56,-73.97,73.24,0,0.06,0.06,0,0,0,0,0
101842059,99823,26.75,0,-7.11,84.53,-45.48,-1010.74,-57.13,73.24,0.61,-0.18,0.06,0,0,0,0,0
102863904,99823,26.76,0,-6.78,84.55,-45.04,-998.29,-90.09,63.72,0,0.06,-0.24,0,0,0,0,0
103885773,99827,26.78,0,-7.18,84.53,-45.35,-1002.69,-76.9,73.24,-0.18,0,-0.24,0,0,0,0,0
104907590,99826,26.79,0,-7.59,84.52,-45.67,-1004.88,-76.17,73.24,0.31,0.06,0.12,0,0,0,0,0
105929529,99822,26.81,0,-7.29,84.57,-45.28,-1002.69,-68.85,76.17,0.18,0.12,0.24,0,0,0,0,0
106951051,99823,26.83,0,-7.34,84.55,-45.28,-1004.88,-68.85,68.85,0.24,0.18,-0.37,0,0,0,0,0
107973055,99823,26.84,0,-7.24,84.54,-45.11,-1002.69,-71.04,69.58,0,0.06,-0.06,0,0,0,0,0
108994704,99819,26.86,0,-7.14,84.52,-44.94,-1006.35,-68.12,76.9,0.12,0,-0.12,0,0,0,0,0
110016718,99822,26.87,0,-7.56,84.54,-45.29,-1004.15,-73.24,72.51,-0.06,-0.06,0.06,0,0,0,0,0
111038577,99816,26.89,0,-7.63,84.54,-45.31,-1005.62,-71.04,62.99,0.12,0,0.24,0,0,0,0,0
112060186,99822,26.9,0,-7.42,84.52,-45.04,-1001.95,-63.72,76.17,0.24,0.12,-0.06,0,0,0,0,0
113082135,99822,26.92,0,-7.75,84.52,-45.31,-1002.69,-68.12,77.64,-0.06,-0.06,-0.24,0,0,0,0,0
114104380,99824,26.93,0,-7.74,84.48,-45.25,-1003.42,-71.04,65.92,-0.06,0.31,-0.18,0,0,0,0,0
115126351,99829,26.95,0,-8.2,84.46,-45.66,-1005.62,-76.17,68.85,0.06,-0.06,0.06,0,1,0,0,0
116148124,99827,26.97,0,-7.99,84.5,-45.36,-999.02,-68.12,70.31,0.18,-0.12,0.12,0,1,0,0,0
117169921,99827,26.98,0,-8.18,84.5,-45.49,-1005.62,-61.52,73.24,0.37,0.12,0.18,0,1,0,0,0
118192212,99825,27,0,-8.13,84.49,-45.37,-1003.42,-68.12,70.31,0.18,-0.06,-0.12,0,1,0,0,0
119213973,99827,27.01,0,-8.54,84.47,-45.72,-1004.88,-74.71,70.31,-0.06,-0.06,0.06,0,1,0,0,0
120236168,99827,27.02,0,-8.96,84.46,-46.08,-1001.95,-82.76,72.51,0.24,0,0.24,0,0,0,0,0
121258117,99827,27.04,0,-8.81,84.46,-45.87,-1003.42,-76.17,69.58,0.18,0.18,0.24,0,0,0,0,0
122279837,99828,27.05,0,-8.84,84.48,-45.8,-1006.35,-71.78,72.51,0.06,0,0,0,0,0,0,0
123301606,99828,27.07,0,-8.99,84.46,-45.9,-1001.95,-65.92,65.92,0.06,-0.12,0,0,0,0,0,0
124323685,99831,27.09,0,-8.89,84.44,-45.73,-1004.15,-68.85,70.31,0,0.18,0,0,0,0,0,0
125345395,99828,27.1,0,-9.01,84.43,-45.78,-1005.62,-68.12,78.37,0.12,0.18,0.12,0,0,0,0,0
126367354,99826,27.12,0,-9.37,84.45,-46.09,-1005.62,-75.44,73.97,0.06,-0.06,-0.18,0,0,0,0,0
127389309,99830,27.13,0,-9.56,84.46,-46.24,-1004.88,-75.44,65.92,0.18,0.12,-0.06,0,0,0,0,0
128411381,99824,27.14,0,-9.25,84.45,-45.86,-1005.62,-72.51,64.45,-0.12,0.12,0.12,0,0,0,0,0
129433193,99833,27.15,0,-9.15,84.46,-45.67,-1001.95,-69.58,73.97,0.24,0.06,0,0,0,0,0,0
130454988,99827,27.17,0,-8.98,84.5,-45.37,-1000.49,-67.38,74.71,0.12,-0.12,0.06,0,0,0,0,0
131479973,99823,27.18,0,-8.99,84.48,-45.31,-1004.88,-65.92,76.17,0.31,0,0,0,0,0,0,0
132502110,99826,27.2,0,-9.17,84.44,-45.46,-1001.95,-75.44,68.12,0.12,0.31,0.12,0,0,0,0,0
133524142,99825,27.21,0,-8.9,84.45,-45.14,-1004.15,-74.71,77.64,0,-0.06,0.12,0,0,0,0,0
134545937,99816,27.22,0,-9.14,84.48,-45.3,-1003.42,-79.83,68.12,-0.18,-0.12,0.18,0,0,0,0,0
135570980,99821,27.24,0,-9.31,84.49,-45.38,-1004.15,-68.12,60.79,0.31,0.31,0.06,0,0,0,0,0
136589655,99822,27.26,0,-9.36,84.51,-45.36,-1001.22,-65.92,79.1,-0.06,0.06,0.12,0,0,0,0,0
137611460,99819,27.27,0,-9.32,84.53,-45.23,-1001.22,-55.66,71.78,-0.06,-0.12,0.24,0,0,0,0,0
138633472,99817,27.29,0,-8.96,84.51,-44.81,-1007.08,-73.24,68.12,-0.06,0.31,-0.31,0,0,0,0,0
139655321,99821,27.3,0,-9.5,84.43,-45.3,-1004.88,-79.1,77.64,0.12,0.12,-0.06,0,0,0,0,0
140677328,99818,27.32,0,-9.18,84.51,-44.87,-1005.62,-79.1,65.19,-0.31,-0.06,-0.43,0,0,0,0,0
141699456,99821,27.33,0,-8.92,84.57,-44.5,-998.29,-76.17,59.33,-0.24,0,-0.18,0,0,0,0,0
142721119,99819,27.34,0,-8.76,84.61,-44.27,-1000.49,-90.82,70.31,-0.24,-0.24,-0.18,0,0,0,0,0
143743210,99818,27.35,0,-8.29,84.65,-43.7,-1009.28,-46.88,76.17,0.12,-0.24,0.37,0,0,0,0,0
144765152,99821,27.36,0,-7.85,84.62,-43.19,-1010.01,-68.12,75.44,0,0,-0.06,0,0,0,0,0
145786815,99821,27.37,0,-7.89,84.62,-43.14,-1001.95,-77.64,79.83,0.18,-0.12,-0.31,0,0,0,0,0
146808390,99815,27.39,0,-7.53,84.68,-42.67,-1005.62,-61.52,60.79,0.31,0.43,0.31,0,0,0,0,0
147830241,99817,27.4,0,-8.22,84.59,-43.32,-1004.15,-68.85,77.64,0.06,0.24,0,0,0,0,0,0
148852018,99817,27.41,0,-8.5,84.6,-43.54,-1004.88,-60.06,84.96,0.24,-0.12,-0.06,0,0,0,0,0
149873860,99817,27.42,0,-8.3,84.65,-43.27,-1001.95,-41.75,52,0.85,0.24,-0.67,0,0,0,0,0
150895638,99814,27.44,0,-8.59,84.6,-43.49,-1005.62,-59.33,64.45,0.06,0.12,-0.61,0,0,0,0,0
151917596,99817,27.45,0,-8.44,84.62,-43.27,-1001.95,-65.19,69.58,0.18,0.31,-0.31,0,0,0,0,0
152939550,99817,27.46,0,-8.05,84.69,-42.81,-1003.42,-53.47,66.65,0.06,0.06,-0.37,0,0,0,0,0
153961307,99820,27.47,0,-9.27,84.66,-43.97,-1005.62,-70.31,68.12,0.12,0.24,-0.18,0,0,0,0,0
154982987,99824,27.49,0,-9.34,84.67,-43.93,-1007.08,-70.31,70.31,0,0,0.06,0,0,0,0,0
156004914,99822,27.5,0,-8.84,84.66,-43.36,-1002.69,-67.38,79.83,-0.06,-0.12,-0.12,0,0,0,0,0
157026701,99820,27.51,0,-9.11,84.67,-43.53,-1005.62,-58.59,68.85,0,0.06,-0.06,0,0,0,0,0
158048628,99816,27.52,0,-9.21,84.61,-43.57,-1001.95,-61.52,72.51,0.24,0.24,-0.37,0,0,0,0,0
159072216,99815,27.53,0,-9.03,84.69,-43.3,-1006.35,-73.24,55.66,-0.18,0,-0.49,0,0,0,0,0
160092410,99823,27.54,0,-9.44,84.6,-43.66,-1005.62,-74.71,72.51,0.18,0.24,0.24,0,0,0,0,0
161114053,99825,27.56,0,-9.2,84.6,-43.33,-1005.62,-60.06,72.51,0.24,-0.12,0.37,0,0,0,0,0
162135984,99820,27.57,0,-9.32,84.63,-43.4,-1004.15,-65.19,65.92,0,0,0.12,0,0,0,0,0
163157811,99822,27.58,0,-9.38,84.63,-43.4,-1000.49,-71.78,59.33,0.06,0.31,-0.12,0,0,0,0,0
164179604,99825,27.6,0,-9.48,84.59,-43.44,-1004.15,-72.51,78.37,0.24,0.18,-0.06,0,0,0,0,0
165201308,99822,27.61,0,-9.38,84.63,-43.24,-1002.69,-63.72,68.85,0.06,-0.31,0.24,0,0,0,0,0
166223204,99816,27.61,0,-9.56,84.67,-43.33,-1004.15,-74.71,57.13,-0.18,0.24,0.12,0,0,0,0,0
167245403,99819,27.63,0,-9.51,84.61,-43.22,-1003.42,-69.58,83.5,0,0.31,-0.12,0,0,0,0,0
168267072,99822,27.64,0,-9.91,84.63,-43.56,-1003.42,-79.1,81.3,-0.18,-0.12,-0.37,0,0,0,0,0
169288884,99818,27.66,0,-9.65,84.71,-43.22,-1004.88,-63.72,58.59,0.18,-0.06,0,0,0,0,0,0
170310491,99815,27.66,0,-9.86,84.64,-43.36,-1003.42,-68.12,65.19,0.18,0,0,0,0,0,0,0
171332331,99817,27.67,0,-9.96,84.63,-43.4,-1005.62,-65.92,75.44,0,0.06,0.18,0,0,0,0,0
172353973,99819,27.68,0,-10.49,84.65,-43.87,-1005.62,-68.85,69.58,0.12,-0.18,0.37,0,0,0,0,0
173375952,99821,27.7,0,-10.25,84.67,-43.55,-1004.15,-58.59,66.65,0,-0.18,0.12,0,0,0,0,0
174397796,99824,27.71,0,-10.52,84.62,-43.76,-1004.15,-55.66,69.58,0.12,0.18,-0.31,0,0,0,0,0
175422282,99821,27.72,0,-10.6,84.63,-43.78,-1005.62,-77.64,74.71,0.06,0.12,-0.31,0,0,0,0,0
176441129,99813,27.72,0,-10.37,84.62,-43.46,-1006.35,-69.58,71.78,-0.06,0,0,0,0,0,0,0
177463050,99821,27.74,0,-10.88,84.62,-43.87,-1004.15,-77.64,73.24,-0.61,0.12,-0.12,0,0,0,0,0
178485175,99824,27.75,0,-11.08,84.66,-44.01,-1003.42,-68.85,78.37,0.18,0.18,-0.06,0,0,0,0,0
179507058,99825,27.76,0,-11.25,84.67,-44.11,-1001.22,-69.58,67.38,-0.06,0.18,0.18,0,0,0,0,0
180528751,99823,27.77,0,-11.28,84.62,-44.07,-1007.08,-61.52,74.71,0,-0.12,0.06,0,0,0,0,0
181550480,99823,27.78,0,-11.17,84.61,-43.88,-1005.62,-66.65,71.78,0.31,0,-0.06,0,0,0,0,0
182572130,99820,27.79,0,-11.44,84.61,-44.1,-1006.35,-69.58,73.97,0,0.18,-0.24,0,0,0,0,0
183593850,99826,27.8,0,-11.59,84.65,-44.17,-1004.15,-69.58,74.71,-0.06,-0.37,0.06,0,0,0,0,0
184615510,99820,27.81,0,-11.6,84.67,-44.09,-1007.08,-58.59,65.92,-0.12,-0.31,0,0,0,0,0,0
185637222,99823,27.82,0,-11.63,84.65,-44.06,-1004.15,-59.33,63.72,0,0.18,-0.06,0,0,0,0,0
186659233,99824,27.83,0,-11.16,84.62,-43.52,-1001.22,-56.4,81.3,0,0.06,-0.12,0,0,0,0,0
187682919,99819,27.84,0,-11.62,84.61,-43.89,-1004.88,-68.85,71.78,0,0,-0.24,0,0,0,0,0
188704595,99819,27.85,0,-11.95,84.62,-44.16,-999.76,-76.9,61.52,0.06,0.06,-0.12,0,0,0,0,0
189726271,99822,27.87,0,-11.83,84.61,-43.99,-1002.69,-75.44,65.92,0.06,0.12,0,0,0,0,0,0
190748233,99820,27.88,0,-11.65,84.65,-43.71,-1003.42,-54.93,71.04,0.12,-0.12,-0.24,0,0,0,0,0
191769477,99820,27.89,0,-11.58,84.63,-43.59,-1007.08,-58.59,68.12,-0.24,0.06,-0.31,0,0,0,0,0
192791348,99822,27.9,0,-11.76,84.64,-43.7,-1005.62,-66.65,75.44,0,0.31,-0.37,0,0,0,0,0
193812848,99818,27.92,0,-12.4,84.63,-44.3,-1002.69,-75.44,68.12,0.18,0.24,-0.18,0,0,0,0,0
194834774,99827,27.93,0,-12.29,84.62,-44.12,-1005.62,-68.85,73.97,0,-0.06,0,0,0,0,0,0
195856877,99830,27.93,0,-12.39,84.61,-44.14,-1003.42,-69.58,71.78,0.31,0.31,0.12,0,0,0,0,0
196878211,99828,27.95,0,-12.25,84.6,-43.92,-1005.62,-68.85,71.04,0.18,0,-0.31,0,0,0,0,0
197900012,99825,27.96,0,-12.5,84.6,-44.08,-1003.42,-67.38,77.64,0.12,0.18,-0.12,0,0,0,0,0
198922526,99826,27.97,0,-12.78,84.6,-44.28,-1007.81,-65.19,71.04,0.06,0.12,-0.06,0,0,0,0,0
199943618,99826,27.98,0,-12.96,84.61,-44.41,-1004.88,-74.71,76.9,0.12,0.12,-0.12,0,0,0,0,0
200965422,99828,27.99,0,-12.79,84.62,-44.16,-1001.22,-60.79,73.97,0,-0.24,-0.18,0,0,0,0,0
201987112,99824,28,0,-12.36,84.61,-43.68,-1002.69,-67.38,71.04,0.18,-0.37,-0.24,0,0,0,0,0
203008476,99822,28.01,0,-12.42,84.61,-43.65,-1007.08,-64.45,68.12,0,-0.12,0.12,0,0,0,0,0
204030183,99824,28.02,0,-12.41,84.6,-43.56,-1004.15,-68.85,73.97,0.12,0.24,-0.18,0,0,0,0,0
205051992,99822,28.03,0,-12.86,84.66,-43.96,-1002.69,-73.24,82.03,-0.06,-0.18,-0.06,0,0,0,0,0
206073230,99822,28.04,0,-13.07,84.67,-44.09,-1004.88,-71.04,65.19,0.18,-0.06,0,0,0,0,0,0
207094976,99828,28.05,0,-12.7,84.62,-43.65,-1006.35,-65.19,68.12,0.37,-0.12,0.24,0,0,0,0,0
208116633,99824,28.05,0,-12.9,84.62,-43.76,-1003.42,-67.38,80.57,0,-0.06,0.24,0,0,0,0,0
209138421,99821,28.07,0,-13.35,84.68,-44.13,-1004.15,-62.99,67.38,0.12,-0.31,-0.18,0,0,0,0,0
210160129,99821,28.07,0,-13.31,84.64,-44.01,-1007.08,-68.85,73.97,0.12,0.43,0,0,0,0,0,0
211181464,99816,28.08,0,-13.07,84.65,-43.7,-1001.95,-66.65,73.24,-0.06,0.12,0.12,0,0,0,0,0
212203400,99820,28.09,0,-13.06,84.63,-43.6,-1004.88,-71.78,71.78,0.18,0,-0.18,0,0,0,0,0
213224921,99810,28.1,0,-13.64,84.64,-44.08,-1006.35,-64.45,68.12,0.12,-0.06,0,0,0,0,0,0
214247167,99817,28.11,0,-13.59,84.66,-43.95,-1001.95,-57.86,65.19,0.06,-0.24,-0.12,0,0,0,0,0
215268314,99820,28.12,0,-13.56,84.62,-43.87,-1004.88,-60.06,67.38,-0.18,-0.12,-0.12,0,0,0,0,0
216290085,99818,28.13,0,-13.66,84.63,-43.91,-1006.35,-68.85,68.12,-0.18,0.31,-0.12,0,0,0,0,0
217312061,99827,28.14,0,-13.95,84.63,-44.14,-1002.69,-71.04,69.58,-0.18,0.06,-0.12,0,0,0,0,0
218333568,99821,28.15,0,-14.37,84.61,-44.48,-1003.42,-67.38,73.24,0.24,-0.18,-0.06,0,0,0,0,0
219355213,99816,28.16,0,-14.38,84.62,-44.41,-1005.62,-65.92,69.58,0,0.31,0.06,0,0,0,0,0
220376623,99820,28.17,0,-13.99,84.64,-43.94,-1006.35,-58.59,63.72,0.06,0.24,0.12,0,0,0,0,0
221398316,99817,28.18,0,-14.18,84.61,-44.07,-1003.42,-61.52,82.03,-0.06,0.18,-0.12,0,0,0,0,0
222420282,99814,28.18,0,-14.2,84.62,-44.02,-1002.69,-76.17,76.9,0,-0.31,-0.31,0,0,0,0,0
223442336,99817,28.19,0,-14.58,84.61,-44.33,-1003.42,-67.38,67.38,-0.06,-0.37,0.06,0,0,0,0,0
224463686,99814,28.2,0,-14.5,84.63,-44.16,-1004.88,-65.92,68.12,0.12,0,0.24,0,0,0,0,0
225485382,99816,28.21,0,-14.13,84.64,-43.72,-1000.49,-62.99,64.45,0,0.12,0,0,0,0,0,0
226507174,99822,28.23,0,-14.12,84.67,-43.67,-1005.62,-67.38,71.04,0.12,0,-0.24,0,0,0,0,0
227528302,99815,28.24,0,-14.22,84.7,-43.68,-1004.15,-61.52,70.31,0,-0.12,-0.18,0,0,0,0,0
228550404,99820,28.25,0,-14.15,84.65,-43.52,-1005.62,-65.19,71.78,-0.12,0.06,-0.12,0,0,0,0,0
229572510,99819,28.25,0,-14.52,84.64,-43.82,-1001.95,-79.83,77.64,0,0.06,-0.12,0,0,0,0,0
230594364,99822,28.26,0,-14.54,84.68,-43.79,-1005.62,-67.38,71.78,0.18,0,0.31,0,0,0,0,0
231616036,99818,28.27,0,-14.56,84.7,-43.74,-1004.88,-64.45,65.92,0.18,-0.06,0.24,0,0,0,0,0
232638093,99818,28.28,0,-14.44,84.68,-43.55,-1004.15,-69.58,68.85,-0.12,-0.18,0,0,0,0,0,0
233660127,99816,28.28,0,-14.75,84.69,-43.8,-1005.62,-65.92,68.12,-0.18,-0.12,-0.12,0,0,0,0,0
234682093,99814,28.29,0,-14.58,84.67,-43.56,-1004.88,-70.31,67.38,0.18,-0.18,-0.12,0,0,0,0,0
235703853,99816,28.3,0,-14.79,84.65,-43.7,-1001.95,-63.72,73.24,0.12,0.31,0.12,0,0,0,0,0
236725891,99815,28.31,0,-14.84,84.67,-43.67,-1004.15,-68.85,66.65,0,0.06,0.12,0,0,0,0,0
237747703,99818,28.32,0,-14.61,84.68,-43.36,-1004.15,-69.58,71.04,-0.24,-0.31,0,0,0,0,0,0
238769607,99811,28.33,0,-14.69,84.66,-43.37,-1002.69,-65.92,71.78,-0.06,-0.06,-0.12,0,0,0,0,0
239791565,99814,28.34,0,-15.31,84.63,-43.93,-1006.35,-68.12,65.19,-0.12,-0.18,0.06,0,0,0,0,0
240813291,99818,28.35,0,-15.17,84.64,-43.7,-1001.95,-64.45,69.58,-0.06,0.06,0.06,0,0,0,0,0
241835575,99815,28.36,0,-15.56,84.64,-44.05,-1001.95,-71.78,72.51,-0.06,-0.24,-0.18,0,0,0,0,0
242857494,99824,28.37,0,-15.73,84.65,-44.14,-1004.15,-65.92,60.79,0.12,0.12,0.24,0,0,0,0,0
243879290,99821,28.38,0,-15.43,84.64,-43.78,-1005.62,-64.45,71.78,0.18,-0.06,0.24,0,0,0,0,0
244901133,99824,28.38,0,-15.37,84.63,-43.64,-1003.42,-70.31,69.58,-0.06,-0.06,-0.06,0,0,0,0,0
245923188,99817,28.39,0,-15.31,84.61,-43.5,-1006.35,-71.04,73.24,0.06,-0.12,-0.18,0,0,0,0,0
246945298,99819,28.4,0,-15.79,84.62,-43.92,-1004.88,-62.26,73.97,0.18,0.18,0.12,0,0,0,0,0
247967311,99817,28.41,0,-15.82,84.65,-43.89,-1003.42,-62.99,71.78,-0.12,-0.06,0,0,0,0,0,0
248991488,99821,28.42,0,-16.27,84.66,-44.24,-1001.22,-76.17,72.51,-0.24,-0.18,-0.24,0,0,0,0,0
250013439,99821,28.42,0,-15.79,84.68,-43.67,-1006.35,-65.19,66.65,0.06,0.06,-0.24,0,0,0,0,0
251034744,99817,28.43,0,-15.83,84.65,-43.62,-1008.54,-60.06,60.79,0.12,0.43,-0.31,0,0,0,0,0
252056817,99810,28.44,0,-15.8,84.65,-43.54,-1004.15,-62.26,78.37,0.12,0,0.24,0,0,0,0,0
253078691,99815,28.45,0,-16.14,84.66,-43.81,-1003.42,-67.38,70.31,0.31,0,0.12,0,0,0,0,0
254100672,99815,28.45,0,-16.25,84.65,-43.83,-1004.88,-64.45,61.52,0.24,0,0.37,0,0,0,0,0
255124522,99817,28.46,0,-16,84.63,-43.51,-1007.08,-64.45,84.96,0.18,0.24,0.18,0,0,0,0,0
256144375,99813,28.47,0,-16.63,84.64,-44.05,-1006.35,-70.31,73.24,0.06,-0.06,0.12,0,0,0,0,0
257166255,99816,28.47,0,-16.31,84.69,-43.65,-1001.22,-67.38,70.31,0.06,0.06,-0.55,0,0,0,0,0
258188102,99817,28.48,0,-16.73,84.64,-44.02,-1000.49,-69.58,67.38,0,0.24,-0.43,0,0,0,0,0
259210233,99823,28.49,0,-17.24,84.59,-44.47,-1007.81,-78.37,71.78,0.12,0.06,0.24,0,0,0,0,0
260231969,99820,28.5,0,-16.34,84.61,-43.49,-1001.95,-66.65,83.5,-0.18,-0.37,-0.06,0,0,0,0,0
261253945,99823,28.51,0,-17.36,84.66,-44.43,-1006.35,-62.99,57.13,-0.12,0.06,0.06,0,0,0,0,0
262275701,99821,28.52,0,-16.81,84.64,-43.78,-1007.81,-59.33,67.38,0.06,0.06,0.12,0,0,0,0,0
263301421,99816,28.53,0,-16.4,84.62,-43.3,-1003.42,-71.04,79.1,0.06,-0.06,0,0,0,0,0,0
264319511,99824,28.54,0,-16.86,84.65,-43.66,-1004.88,-56.4,78.37,0.37,-0.12,-0.18,0,0,0,0,0
265341028,99819,28.55,0,-16.89,84.66,-43.61,-1005.62,-59.33,68.12,0,0.06,-0.24,0,0,0,0,0
266362744,99816,28.55,0,-16.99,84.67,-43.61,-1001.95,-68.12,68.12,0,0,-0.06,0,0,0,0,0
267384888,99822,28.57,0,-17.35,84.65,-43.91,-1006.35,-71.04,72.51,0.06,0,0.12,0,0,0,0,0
268406955,99820,28.57,0,-17.48,84.66,-43.95,-1002.69,-68.85,66.65,0.12,0,0.06,0,0,0,0,0
269429000,99824,28.58,0,-17.67,84.65,-44.06,-1004.88,-60.79,60.79,0,0.06,-0.06,0,0,0,0,0
270451127,99822,28.59,0,-17.65,84.62,-43.96,-1003.42,-66.65,68.85,0.18,0.12,0,0,0,0,0,0
271473286,99823,28.59,0,-17.92,84.63,-44.14,-1004.88,-66.65,71.04,0.06,0,0.06,0,0,0,0,0
272495358,99822,28.6,0,-18.11,84.62,-44.26,-1004.15,-56.4,67.38,0.06,-0.12,0.12,0,0,0,0,0
273517409,99823,28.6,0,-18.25,84.66,-44.34,-1007.08,-60.79,68.12,0.24,0.06,-0.18,0,0,0,0,0
274539600,99823,28.61,0,-18.33,84.64,-44.32,-1005.62,-67.38,75.44,0.06,0.24,-0.06,0,0,0,0,0
275561641,99822,28.62,0,-18.31,84.63,-44.19,-1004.15,-70.31,72.51,-0.06,-0.12,-0.06,0,0,0,0,0
276583781,99819,28.63,0,-18.06,84.64,-43.86,-1004.88,-64.45,68.85,0.18,-0.12,-0.06,0,0,0,0,0
277605912,99825,28.63,0,-18.48,84.61,-44.24,-1005.62,-66.65,69.58,0.12,-0.12,0.18,0,0,0,0,0
278628093,99822,28.64,0,-18.69,84.64,-44.38,-1007.81,-65.19,72.51,0.06,-0.18,0.24,0,0,0,0,0
279650321,99823,28.65,0,-18.44,84.62,-44.05,-1001.22,-65.19,77.64,0.06,-0.12,0.12,0,0,0,0,0
280672434,99823,28.66,0,-18.32,84.63,-43.84,-1010.01,-62.99,67.38,0.06,-0.06,-0.18,0,0,0,0,0
281694755,99820,28.66,0,-18.66,84.63,-44.09,-1004.88,-68.12,68.85,0.12,0.06,-0.06,0,0,0,0,0
282717002,99818,28.67,0,-18.57,84.63,-43.91,-1005.62,-68.12,75.44,0.06,0.18,0,0,0,0,0,0
283739146,99819,28.68,0,-18.48,84.65,-43.73,-1002.69,-60.79,71.04,-0.18,-0.24,0.06,0,0,0,0,0
284761494,99819,28.69,0,-18.28,84.68,-43.46,-1001.95,-65.19,64.45,-0.06,0,0.12,0,0,0,0,0
285783565,99821,28.69,0,-18.41,84.65,-43.51,-1001.95,-60.79,76.17,0.18,0.06,-0.06,0,0,0,0,0
286805797,99821,28.7,0,-18.67,84.65,-43.68,-1004.88,-68.12,71.04,0.18,0.37,-0.18,0,0,0,0,0
287832313,99811,28.71,0,-19.14,84.65,-44.06,-1004.15,-65.19,68.12,0.12,-0.06,0.12,0,0,0,0,0
288854663,99815,28.72,0,-18.91,84.69,-43.76,-1007.81,-64.45,71.04,0.12,-0.06,0.24,0,0,0,0,0
289876989,99817,28.72,0,-18.78,84.67,-43.57,-1003.42,-61.52,73.24,0.06,0.18,0.06,0,0,0,0,0
290899138,99815,28.73,0,-18.85,84.65,-43.58,-1005.62,-69.58,76.9,0,-0.06,-0.43,0,0,0,0,0
291921042,99824,28.74,0,-19.29,84.63,-43.95,-1007.81,-70.31,68.12,0.24,0.12,0.12,0,0,0,0,0
292943380,99819,28.74,0,-19.24,84.64,-43.8,-1006.35,-71.04,71.78,-0.06,-0.18,0.12,0,0,0,0,0
293965816,99817,28.75,0,-19.48,84.66,-43.97,-1004.88,-65.19,66.65,0.18,-0.06,0.18,0,0,0,0,0
294987976,99822,28.75,0,-19.28,84.69,-43.71,-1006.35,-66.65,71.78,-0.12,-0.06,0,0,0,0,0,0
296010298,99820,28.77,0,-19.29,84.66,-43.65,-1005.62,-60.79,74.71,0.12,0.18,-0.37,0,0,0,0,0
297032474,99820,28.77,0,-19.65,84.65,-43.92,-1004.15,-71.78,76.17,0.06,0.12,0.12,0,0,0,0,0
298054811,99822,28.78,0,-20.16,84.64,-44.35,-1001.95,-71.78,64.45,0.12,-0.06,-0.12,0,0,0,0,0
299079977,99821,28.78,0,-20.07,84.65,-44.19,-1006.35,-71.78,76.17,-0.12,-0.18,0.12,0,0,0,0,0
300099109,99825,28.79,0,-19.81,84.63,-43.85,-1006.35,-65.19,75.44,0.37,0.06,-0.18,0,0,0,0,0
301123791,99822,28.8,0,-19.61,84.62,-43.58,-1005.62,-68.12,73.97,-0.06,-0.06,0.06,0,0,0,0,0
302146169,99821,28.8,0,-20.03,84.58,-43.92,-1004.88,-68.12,58.59,0.12,0.12,0.37,0,0,0,0,0
303168115,99816,28.81,0,-20.22,84.58,-44.02,-1004.88,-60.06,80.57,0.12,-0.06,0.49,0,0,0,0,0
304190269,99818,28.81,0,-20.09,84.65,-43.8,-1007.08,-67.38,73.24,-0.06,-0.31,0.18,0,0,0,0,0
305213806,99816,28.82,0,-20.12,84.65,-43.77,-1003.42,-65.92,71.04,-0.06,0.12,-0.12,0,0,0,0,0
306234574,99818,28.82,0,-20.17,84.63,-43.78,-1007.08,-73.24,71.78,0,-0.24,-0.24,0,0,0,0,0
307256869,99816,28.83,0,-20.45,84.59,-43.97,-1003.42,-77.64,73.24,0.18,-0.06,-0.18,0,0,0,0,0
308278913,99818,28.84,0,-20.65,84.61,-44.1,-1007.08,-75.44,62.99,0.06,0.06,0.12,0,0,0,0,0
309301278,99813,28.85,0,-20.66,84.63,-44.04,-1007.81,-58.59,71.78,0.12,0.06,0.24,0,0,0,0,0
310323288,99819,28.86,0,-20.82,84.63,-44.14,-1007.08,-66.65,80.57,-0.06,0.18,0,0,0,0,0,0
311345436,99820,28.87,0,-21.1,84.62,-44.36,-1004.15,-69.58,73.97,0,0.06,-0.18,0,0,0,0,0
312367736,99821,28.87,0,-21.09,84.61,-44.26,-1004.88,-71.78,66.65,0.18,0,-0.24,0,0,0,0,0
313389997,99820,28.88,0,-21.37,84.59,-44.44,-1005.62,-75.44,62.26,0.24,-0.06,0.06,0,0,0,0,0
314412306,99814,28.89,0,-21.17,84.6,-44.19,-1004.88,-70.31,68.85,-0.12,0.06,0.12,0,0,0,0,0
315438361,99813,28.89,0,-21.42,84.58,-44.41,-1006.35,-57.86,70.31,0.31,0,0.12,0,0,0,0,0
316460301,99810,28.9,0,-21.27,84.6,-44.18,-1004.88,-71.04,71.78,-0.06,0.18,0,0,0,0,0,0
317482229,99812,28.9,0,-21.07,84.63,-43.88,-1002.69,-65.92,73.24,0.12,-0.06,-0.18,0,0,0,0,0
318504295,99819,28.91,0,-21.68,84.6,-44.42,-1006.35,-69.58,70.31,0.18,0.12,-0.18,0,0,0,0,0
319526543,99812,28.92,0,-21.17,84.65,-43.8,-1001.22,-68.85,71.04,0,-0.18,-0.43,0,0,0,0,0
320548565,99815,28.92,0,-21.93,84.64,-44.51,-1003.42,-71.04,65.19,0.06,0,-0.18,0,0,0,0,0
321570627,99810,28.93,0,-21.63,84.63,-44.08,-1004.15,-77.64,74.71,0.37,-0.06,0,0,0,0,0,0
322592905,99810,28.94,0,-21.28,84.64,-43.65,-1007.08,-60.06,78.37,0.06,0.18,-0.18,0,0,0,0,0
323614931,99816,28.95,0,-21.65,84.63,-43.93,-1005.62,-69.58,69.58,-0.06,-0.12,-0.24,0,0,0,0,0
324636929,99817,28.96,0,-21.97,84.61,-44.18,-1007.08,-67.38,65.92,-0.12,0.06,0,0,0,0,0,0
325658627,99816,28.97,0,-22.2,84.59,-44.35,-1004.88,-65.19,71.04,0,0.18,-0.24,0,0,0,0,0
326680650,99816,28.97,0,-21.89,84.62,-43.96,-1004.15,-73.97,76.17,-0.12,0.12,-0.12,0,0,0,0,0
327702482,99810,28.97,0,-21.54,84.65,-43.52,-1005.62,-72.51,73.24,-0.12,0.12,0,0,0,0,0,0
328724940,99813,28.98,0,-21.39,84.65,-43.28,-1006.35,-67.38,61.52,-0.06,0.18,-0.43,0,0,0,0,0
329746852,99811,28.98,0,-22.04,84.6,-43.86,-1006.35,-72.51,73.97,0.12,0,-0.06,0,0,0,0,0
330768764,99816,29,0,-21.98,84.65,-43.73,-1004.88,-60.79,71.78,0.37,0,0.06,0,0,0,0,0
331790800,99819,29,0,-22.27,84.64,-43.96,-1006.35,-65.19,71.04,-0.18,-0.06,-0.12,0,0,0,0,0
332812931,99816,29.01,0,-22.54,84.6,-44.16,-1005.62,-76.9,65.92,0.06,0,0.12,0,0,0,0,0
333835110,99813,29.01,0,-22.84,84.61,-44.37,-999.02,-79.1,75.44,0.18,0.12,-0.18,0,0,0,0,0
334857189,99811,29.02,0,-22.57,84.66,-43.98,-1007.81,-73.24,73.97,0.12,-0.06,0.12,0,0,0,0,0
335878993,99815,29.02,0,-23.14,84.68,-44.48,-1005.62,-60.79,67.38,0.24,0,0.18,0,0,0,0,0
336901223,99822,29.03,0,-23.06,84.65,-44.36,-1006.35,-65.19,66.65,0.12,0.06,0.12,0,0,0,0,0
337923446,99821,29.03,0,-23.21,84.64,-44.45,-1008.54,-65.19,71.78,0.18,-0.12,-0.06,0,0,0,0,0
338945702,99816,29.04,0,-23.22,84.62,-44.38,-1004.15,-77.64,65.92,0.06,0.12,0.06,0,0,0,0,0
339967954,99816,29.05,0,-23.26,84.63,-44.35,-1008.54,-64.45,75.44,0.12,0,0.06,0,0,0,0,0
340989959,99815,29.05,0,-23.72,84.58,-44.75,-1006.35,-70.31,66.65,0.12,0.18,0.06,0,0,0,0,0
342016608,99815,29.06,0,-23.65,84.6,-44.61,-1004.88,-72.51,70.31,0,0.06,-0.12,0,0,0,0,0
343039527,99814,29.06,0,-23.89,84.58,-44.78,-1002.69,-69.58,70.31,0.06,0,-0.06,0,0,0,0,0
344061399,99818,29.07,0,-23.88,84.59,-44.7,-1004.15,-62.99,66.65,0.06,-0.06,0.12,0,0,0,0,0
345083602,99819,29.07,0,-23.93,84.57,-44.67,-1007.81,-65.92,75.44,0,0,-0.06,0,0,0,0,0
346109082,99815,29.08,0,-24.03,84.6,-44.68,-1005.62,-65.19,71.78,0.12,0.18,0,0,0,0,0,0
347127973,99814,29.08,0,-24.09,84.58,-44.69,-1000.49,-65.92,75.44,0.18,-0.18,0.06,0,0,0,0,0
348150149,99818,29.09,0,-23.88,84.6,-44.42,-1004.88,-72.51,68.85,0,-0.24,0,0,0,0,0,0
349172020,99814,29.1,0,-23.75,84.64,-44.18,-1004.15,-57.13,78.37,0.12,-0.24,0,0,0,0,0,0
350194087,99815,29.1,0,-23.89,84.62,-44.25,-1003.42,-68.12,62.26,-0.31,0.06,0,0,0,0,0,0
351216134,99820,29.11,0,-24.31,84.61,-44.6,-1003.42,-73.24,71.04,0.12,0.18,-0.06,0,0,0,0,0
352238269,99817,29.11,0,-24.22,84.59,-44.46,-1007.08,-65.19,76.9,0.31,0.06,0.12,0,0,0,0,0
353264805,99817,29.12,0,-24.17,84.61,-44.34,-1003.42,-67.38,71.04,-0.12,0.06,-0.12,0,0,0,0,0
354286791,99817,29.12,0,-24.14,84.59,-44.24,-1005.62,-71.78,71.04,0.06,0.06,0.06,0,0,0,0,0
355308967,99818,29.13,0,-24.25,84.57,-44.28,-1006.35,-71.78,68.12,0,0.12,0.12,0,0,0,0,0
356331213,99817,29.13,0,-24.35,84.61,-44.32,-1000.49,-67.38,73.97,0,-0.24,0.12,0,0,0,0,0
357352813,99820,29.14,0,-24.77,84.65,-44.65,-1005.62,-70.31,71.04,0,0,-0.18,0,0,0,0,0
358374223,99814,29.15,0,-24.95,84.64,-44.74,-1001.95,-71.78,69.58,0.24,0.06,0,0,0,0,0,0
359395954,99821,29.16,0,-24.84,84.63,-44.53,-1003.42,-66.65,68.85,0.18,0.12,0.24,0,0,0,0,0
360417167,99813,29.16,0,-24.63,84.62,-44.22,-1005.62,-68.12,70.31,0.24,0.18,-0.31,0,0,0,0,0
361438536,99817,29.17,0,-25.01,84.58,-44.54,-1006.35,-69.58,69.58,0.06,-0.12,0.06,0,0,0,0,0
362460355,99820,29.18,0,-24.94,84.6,-44.35,-1007.08,-61.52,71.78,0.06,0.06,-0.18,0,0,0,0,0
363482372,99821,29.19,0,-25.02,84.59,-44.36,-1004.88,-71.04,67.38,-0.12,0.18,0,0,0,0,0,0
364503858,99816,29.2,0,-24.79,84.61,-44.05,-1005.62,-65.19,77.64,-0.18,0.06,-0.06,0,0,0,0,0
365525383,99817,29.21,0,-24.88,84.6,-44.05,-1003.42,-73.97,71.78,0,0.06,0.06,0,0,0,0,0
366546753,99818,29.21,0,-25.18,84.61,-44.26,-1004.15,-64.45,61.52,0.37,-0.12,0.18,0,0,0,0,0
367568716,99813,29.22,0,-24.91,84.64,-43.91,-1005.62,-60.79,67.38,0.31,0,0.43,0,0,0,0,0
368590869,99816,29.22,0,-24.76,84.64,-43.69,-1004.15,-55.66,73.24,0.24,-0.06,0,0,0,0,0,0
369612979,99820,29.23,0,-25.17,84.65,-44.03,-1005.62,-65.92,66.65,0.06,0.12,-0.24,0,0,0,0,0
370635022,99823,29.24,0,-25.66,84.59,-44.46,-1006.35,-70.31,68.12,0.06,0.12,0.18,0,1,0,0,0
371656676,99819,29.25,0,-25.63,84.58,-44.35,-1004.88,-75.44,73.97,-0.06,-0.06,0,0,1,0,0,0
372678659,99820,29.26,0,-25.61,84.6,-44.25,-998.29,-75.44,72.51,-0.12,0.06,0.06,0,1,0,0,0
373700526,99812,29.26,0,-25.62,84.63,-44.16,-1005.62,-65.19,68.85,0.06,0.06,-0.12,0,1,0,0,0
374722399,99814,29.27,0,-25.82,84.61,-44.29,-1004.15,-54.2,68.85,0.18,-0.24,0.31,0,1,0,0,0
375743868,99819,29.27,0,-25.81,84.59,-44.22,-1002.69,-65.92,82.03,0.37,0.12,0.12,0,0,0,0,0
376766398,99815,29.28,0,-25.72,84.66,-44.05,-1001.22,-65.92,79.1,0,-0.18,0.12,0,0,0,0,0
377788725,99817,29.28,0,-25.72,84.67,-43.97,-1007.81,-68.85,64.45,0,0.06,-0.18,0,0,0,0,0
378810761,99813,29.29,0,-26.02,84.63,-44.2,-1004.15,-74.71,64.45,-0.06,0.12,-0.31,0,0,0,0,0
379832693,99817,29.29,0,-26.33,84.58,-44.47,-1001.95,-79.1,66.65,0.18,0.12,0.37,0,0,0,0,0
380854962,99815,29.3,0,-26,84.57,-44.07,-1001.22,-65.19,81.3,-0.06,0,0.18,0,0,0,0,0
381877216,99817,29.31,0,-26.17,84.6,-44.15,-1005.62,-64.45,65.19,0,-0.18,0.06,0,0,0,0,0
382899477,99817,29.31,0,-26.3,84.62,-44.2,-1005.62,-65.92,68.12,0.18,0.18,0.06,0,0,0,0,0
383921558,99819,29.32,0,-26.22,84.6,-44.06,-1003.42,-64.45,74.71,0.06,0.12,-0.06,0,0,0,0,0
384943538,99818,29.32,0,-26.42,84.64,-44.16,-1003.42,-68.85,75.44,0.18,-0.24,-0.18,0,0,0,0,0
385965155,99822,29.33,0,-26.51,84.63,-44.15,-1007.81,-66.65,69.58,0.18,0,-0.06,0,0,0,0,0
386986711,99822,29.33,0,-26.68,84.63,-44.25,-1001.22,-68.85,65.19,-0.31,0.06,-0.12,0,0,0,0,0
388007900,99825,29.35,0,-26.81,84.64,-44.29,-1002.69,-68.85,73.24,0.12,0.06,-0.24,0,0,0,0,0
389029581,99818,29.35,0,-26.8,84.64,-44.2,-1003.42,-63.72,69.58,0.55,0.06,0.18,0,0,0,0,0
390050828,99818,29.35,0,-26.38,84.68,-43.67,-1006.35,-65.19,74.71,0.06,-0.18,-0.12,0,0,0,0,0
391076096,99818,29.36,0,-26.72,84.64,-43.93,-1004.15,-68.85,72.51,-0.12,-0.06,-0.06,0,0,0,0,0
392094372,99821,29.36,0,-26.57,84.66,-43.69,-1001.22,-57.86,68.12,0.18,-0.18,0.12,0,0,0,0,0
393115790,99821,29.37,0,-26.78,84.66,-43.84,-1005.62,-62.99,67.38,-0.18,0.18,-0.12,0,0,0,0,0
394137786,99823,29.38,0,-27.44,84.64,-44.44,-1006.35,-72.51,71.04,-0.06,0,0.06,0,0,0,0,0
395159250,99818,29.38,0,-26.91,84.66,-43.82,-1006.35,-66.65,64.45,0.06,0,0.18,0,0,0,0,0
396181109,99814,29.39,0,-26.57,84.68,-43.41,-1007.81,-71.78,66.65,0.06,0.06,0.12,0,0,0,0,0
397202494,99812,29.39,0,-26.76,84.65,-43.51,-1007.08,-66.65,68.12,0.06,0,-0.12,0,0,0,0,0
398223877,99811,29.4,0,-27.3,84.71,-43.95,-1007.81,-65.19,73.97,0.37,-0.18,0.31,0,0,0,0,0
399245081,99817,29.4,0,-27.39,84.65,-43.99,-1006.35,-77.64,65.19,-0.06,0.31,-0.06,0,0,0,0,0
400266647,99814,29.41,0,-26.33,84.71,-42.83,-1004.88,-63.72,71.04,-0.06,0,-0.18,0,0,0,0,0
401287819,99814,29.42,0,-26.57,84.7,-43,-1001.22,-60.79,63.72,0.12,0.37,-0.31,0,0,0,0,0
402309026,99814,29.42,0,-26.85,84.68,-43.18,-1006.35,-68.12,71.78,0.24,0.06,-0.31,0,0,0,0,0
403330279,99811,29.42,0,-26.9,84.7,-43.14,-1006.35,-72.51,69.58,0.18,0,-0.18,0,0,0,0,0
404351654,99815,29.43,0,-27.22,84.69,-43.37,-1003.42,-62.99,67.38,0.18,0.12,-0.06,0,0,0,0,0
405373104,99805,29.43,0,-27.13,84.69,-43.21,-1002.69,-52.73,71.78,0.12,0.24,0.31,0,0,0,0,0
406394973,99815,29.44,0,-26.74,84.66,-42.75,-1007.81,-61.52,68.12,0.06,0.24,-0.31,0,0,0,0,0
407416189,99814,29.44,0,-27.38,84.66,-43.31,-1004.15,-71.04,71.04,0.06,-0.12,-0.12,0,0,0,0,0
408495235,99811,29.44,0,-27.81,84.63,-43.67,-1006.35,-71.78,63.72,0,-0.12,-0.12,0,0,0,0,0
409517562,99812,29.45,0,-28.13,84.67,-43.92,-1009.28,-68.85,64.45,0.24,0.55,0.24,0,0,0,0,0
410539179,99817,29.46,0,-27.7,84.64,-43.42,-1001.95,-74.71,71.04,0.12,0,0.24,0,0,0,0,0
411560604,99814,29.46,0,-27.7,84.71,-43.33,-1006.35,-67.38,73.97,0,-0.31,-0.12,0,0,0,0,0
412581827,99817,29.46,0,-28.19,84.66,-43.76,-1001.95,-75.44,53.47,0.18,0.12,0.37,0,0,0,0,0
413603327,99808,29.47,0,-27.34,84.73,-42.8,-1004.15,-63.72,71.04,0.06,0.06,-0.18,0,0,0,0,0
414624704,99811,29.48,0,-28.32,84.68,-43.69,-1007.08,-73.24,77.64,0,0.06,-0.06,0,0,0,0,0
415646339,99808,29.5,0,-28.65,84.68,-43.95,-1004.15,-68.12,57.13,0.06,0.12,0.31,0,0,0,0,0
416667800,99811,29.5,0,-28.48,84.63,-43.71,-1007.08,-70.31,74.71,0,0,-0.12,0,0,0,0,0
417689609,99810,29.51,0,-28.49,84.65,-43.63,-1002.69,-64.45,68.85,0.12,-0.12,-0.12,0,0,0,0,0
418711292,99807,29.51,0,-28.93,84.62,-43.99,-1004.88,-78.37,64.45,-0.06,0.31,0.12,0,0,0,0,0
419733271,99815,29.52,0,-29.16,84.62,-44.17,-1005.62,-69.58,57.13,0.24,0.31,0.12,0,0,0,0,0
420755028,99813,29.53,0,-28.56,84.63,-43.49,-1007.08,-66.65,73.97,0.18,-0.06,0,0,0,0,0,0
421776917,99813,29.54,0,-28.75,84.66,-43.57,-1004.88,-65.92,66.65,0.24,-0.18,-0.12,0,0,0,0,0
422856205,99816,29.54,0,-28.42,84.67,-43.13,-1004.88,-58.59,65.92,0.31,-0.24,0,0,0,0,0,0
423878312,99817,29.54,0,-28.55,84.64,-43.18,-1005.62,-54.2,64.45,0.12,0.24,-0.24,0,0,0,0,0
424899472,99811,29.55,0,-28.43,84.67,-42.99,-1007.81,-61.52,71.04,0,0,-0.61,0,0,0,0,0
425921635,99813,29.56,0,-28.75,84.68,-43.21,-1002.69,-60.79,76.9,0.18,0,-0.12,0,0,0,0,0
426945056,99814,29.57,0,-29.11,84.67,-43.5,-1006.35,-66.65,72.51,-0.06,-0.37,-0.06,0,0,0,0,0
427966664,99812,29.58,0,-29.09,84.69,-43.37,-1006.35,-59.33,59.33,0.12,0.18,0.12,0,0,0,0,0
428987923,99810,29.6,0,-29.17,84.67,-43.38,-1004.88,-61.52,61.52,0.12,0.49,0.06,0,0,0,0,0
430009383,99807,29.6,0,-29.93,84.67,-44.02,-1001.22,-68.85,76.17,0,0.12,0.06,0,0,0,0,0
431030818,99810,29.62,0,-29.63,84.69,-43.65,-1007.81,-62.26,71.04,-0.12,-0.24,-0.06,0,0,0,0,0
432052190,99806,29.63,0,-29.67,84.68,-43.6,-1002.69,-66.65,66.65,0.18,0.18,0.06,0,0,0,0,0
433073564,99815,29.64,0,-29.79,84.68,-43.65,-1004.88,-72.51,73.24,-0.12,-0.18,-0.12,0,0,0,0,0
434095840,99805,29.65,0,-30.42,84.68,-44.19,-1005.62,-63.72,62.99,-0.12,0,0.24,0,0,0,0,0
435117988,99812,29.66,0,-30.04,84.68,-43.73,-1004.88,-58.59,80.57,0,0,0.37,0,0,0,0,0
436140217,99808,29.67,0,-29.74,84.72,-43.34,-1004.88,-61.52,71.78,0.06,-0.31,0.12,0,0,0,0,0
437161412,99808,29.68,0,-29.9,84.69,-43.44,-1005.62,-60.06,73.24,0.37,0.12,0,0,0,0,0,0
438182982,99808,29.69,0,-30.03,84.7,-43.49,-1006.35,-78.37,65.92,-0.12,-0.18,-0.06,0,0,0,0,0
439204582,99806,29.69,0,-29.99,84.71,-43.35,-1005.62,-69.58,78.37,0.24,0.06,0.06,0,0,0,0,0
440226098,99809,29.7,0,-29.99,84.73,-43.28,-1002.69,-64.45,64.45,0.24,0.06,0.49,0,0,0,0,0
441247833,99809,29.7,0,-29.91,84.69,-43.16,-1002.69,-66.65,68.12,0.06,0.06,0.24,0,0,0,0,0
442269877,99813,29.71,0,-29.9,84.66,-43.08,-1004.15,-61.52,80.57,0.06,0.06,-0.12,0,0,0,0,0
443292010,99815,29.72,0,-29.95,84.69,-43.03,-1006.35,-67.38,73.24,0.18,0,-0.12,0,0,0,0,0
444314328,99812,29.73,0,-30.49,84.69,-43.49,-1003.42,-77.64,71.78,-0.06,0.06,-0.12,0,0,0,0,0
445340851,99809,29.73,0,-30.88,84.68,-43.81,-1001.95,-68.85,77.64,0.37,0.12,0.24,0,0,0,0,0
446363088,99806,29.73,0,-30.32,84.73,-43.14,-1004.88,-61.52,76.9,0,-0.06,0.24,0,0,0,0,0
447385379,99807,29.74,0,-29.95,84.75,-42.69,-1004.15,-75.44,87.89,-0.37,-0.12,-0.06,0,0,0,0,0
448172220,99808,29.74,0,-30.15,84.74,-42.84,-1008.54,-72.51,77.64,-0.18,-0.06,-0.37,0,0,0,0,0
448182258,99808,29.74,0,-30.18,84.74,-42.86,-1005.62,-58.59,62.99,0.06,-0.06,-0.37,0,0,0,0,0
448192303,99808,29.74,0,-30.2,84.74,-42.89,-1001.22,-71.04,76.9,0.18,0,-0.31,0,0,0,0,0
448203221,99808,29.74,0,-30.22,84.74,-42.91,-1007.08,-60.06,60.79,0.06,-0.06,-0.18,0,0,0,0,0
448213255,99808,29.74,0,-30.22,84.73,-42.91,-1002.69,-71.78,84.23,-0.12,-0.06,-0.24,0,0,0,0,0
448223290,99808,29.74,0,-30.27,84.73,-42.95,-1004.15,-64.45,67.38,0.06,0.12,-0.37,0,0,0,0,0
448233333,99808,29.74,0,-30.31,84.73,-42.99,-1006.35,-60.79,64.45,0.24,0.18,-0.31,0,0,0,0,0
448243387,99808,29.74,0,-30.32,84.73,-43,-1004.88,-69.58,81.3,0.18,0,-0.31,0,0,0,0,0
448254312,99808,29.74,0,-30.35,84.73,-43.04,-1005.62,-66.65,57.86,-0.12,-0.24,-0.31,0,0,0,0,0
448264357,99808,29.74,0,-30.36,84.72,-43.05,-1007.81,-80.57,87.16,-0.31,-0.12,-0.24,0,0,0,0,0
448274409,99808,29.74,0,-30.42,84.71,-43.11,-1002.69,-75.44,61.52,-0.06,0.06,-0.18,0,0,0,0,0
448284465,99808,29.74,0,-30.47,84.71,-43.15,-1005.62,-75.44,67.38,0.31,0,-0.18,0,0,0,0,0
448294512,99808,29.74,0,-30.47,84.71,-43.15,-1003.42,-73.24,77.64,0.31,-0.06,-0.06,0,0,0,0,0
448305448,99808,29.74,0,-30.48,84.71,-43.16,-1003.42,-59.33,57.86,0.18,-0.06,-0.06,0,0,0,0,0
448315494,99808,29.74,0,-30.46,84.7,-43.13,-1004.15,-71.78,92.29,0.24,0,-0.06,0,0,0,0,0
448325534,99808,29.74,0,-30.49,84.71,-43.16,-1007.81,-61.52,50.54,0.12,-0.06,-0.06,0,0,0,0,0
448335580,99808,29.74,0,-30.46,84.7,-43.13,-1003.42,-71.04,88.62,0.06,0,0,0,0,0,0,0
448345632,99808,29.74,0,-30.5,84.7,-43.17,-1006.35,-73.97,60.06,0.12,0,0.06,0,0,0,0,0
448356566,99808,29.74,0,-30.5,84.7,-43.18,-1007.08,-82.03,80.57,0,-0.12,0,0,0,0,0,0
448366606,99808,29.74,0,-30.53,84.7,-43.21,-1007.08,-73.24,59.33,0,0,0.12,0,0,0,0,0
448376652,99808,29.74,0,-30.51,84.7,-43.18,-1008.54,-68.12,70.31,0.06,-0.06,0.31,0,0,0,0,0
448386694,99808,29.74,0,-30.49,84.7,-43.16,-1007.08,-63.72,70.31,0.06,-0.06,0.18,0,0,0,0,0
448396740,99808,29.74,0,-30.48,84.7,-43.15,-1004.15,-67.38,68.85,0.06,-0.06,0.18,0,0,0,0,0
448407702,99807,29.74,0.08,-30.44,84.7,-43.11,-1007.08,-59.33,71.78,0,-0.06,0.18,0,0,0,0,0
448417739,99807,29.74,0.08,-30.42,84.71,-43.09,-1007.08,-63.72,60.06,0.18,-0.12,0.31,0,0,0,0,0
448427799,99807,29.74,0.08,-30.37,84.71,-43.03,-1005.62,-67.38,76.17,0.24,-0.31,0.37,0,0,0,0,0
448437853,99807,29.74,0.08,-30.33,84.71,-42.99,-1007.81,-63.72,60.79,0,-0.31,0.43,0,0,0,0,0
448447889,99807,29.74,0.08,-30.29,84.71,-42.96,-1001.95,-72.51,76.9,-0.06,-0.12,0.43,0,0,0,0,0
448458820,99808,29.74,0,-30.28,84.71,-42.95,-1004.88,-62.99,62.99,0.18,0.12,0.31,0,0,0,0,0
448468859,99808,29.74,0,-30.25,84.72,-42.91,-1006.35,-57.13,68.12,0.24,-0.06,0.18,0,0,0,0,0
448478903,99808,29.74,0,-30.2,84.72,-42.86,-1004.88,-55.66,74.71,0.37,-0.24,0.06,0,0,0,0,0
448488948,99808,29.74,0,-30.16,84.72,-42.82,-1002.69,-53.47,67.38,0.24,-0.18,0.12,0,0,0,0,0
448498992,99808,29.74,0,-30.1,84.72,-42.76,-1008.54,-60.79,79.1,0.06,-0.31,0.12,0,0,0,0,0
448509926,99809,29.74,-0.08,-30.06,84.72,-42.72,-1008.54,-58.59,67.38,0.18,-0.24,0.12,0,0,0,0,0
448519966,99809,29.74,-0.08,-30.03,84.72,-42.68,-1001.22,-53.47,70.31,0.24,0,0.12,0,0,0,0,0
448530013,99809,29.74,-0.08,-30.01,84.72,-42.66,-1005.62,-64.45,71.78,0.06,-0.06,0.12,0,0,0,0,0
448540059,99809,29.74,-0.08,-30.03,84.72,-42.68,-1004.15,-65.19,58.59,0.06,0,0.06,0,0,0,0,0
448550111,99809,29.74,-0.08,-30.01,84.73,-42.67,-1005.62,-57.86,73.97,0.06,0.06,0,0,0,0,0,0
448561042,99808,29.74,0,-29.98,84.72,-42.63,-1004.88,-57.86,81.3,0.12,0.06,-0.06,0,0,0,0,0
448571093,99808,29.74,0,-29.96,84.72,-42.61,-1004.88,-52.73,75.44,0.18,0.06,-0.12,0,0,0,0,0
448581144,99808,29.74,0,-29.95,84.72,-42.6,-1005.62,-55.66,72.51,0,-0.06,-0.18,0,0,0,0,0
448591190,99808,29.74,0,-29.96,84.73,-42.61,-1006.35,-56.4,61.52,-0.06,0,-0.18,0,0,0,0,0
448601241,99808,29.74,0,-29.95,84.73,-42.6,-1009.28,-51.27,73.24,0,0,-0.24,0,0,0,0,0
448612176,99808,29.74,0,-29.95,84.73,-42.6,-1010.01,-58.59,68.85,0,0,-0.18,0,0,0,0,0
448622225,99808,29.74,0,-29.95,84.72,-42.6,-1002.69,-65.19,80.57,-0.18,0.06,-0.12,0,0,0,0,0
448632272,99808,29.74,0,-29.98,84.72,-42.63,-1003.42,-66.65,69.58,-0.37,0,-0.31,0,0,0,0,0
448642319,99808,29.74,0,-30.03,84.73,-42.68,-1010.01,-62.99,55.66,-0.18,0.06,-0.18,0,0,0,0,0
448652367,99808,29.74,0,-30.03,84.73,-42.68,-1004.88,-59.33,74.71,0.18,0.12,-0.18,0,0,0,0,0
448663302,99809,29.74,-0.08,-30.07,84.72,-42.72,-1007.81,-62.26,62.99,0.31,0,-0.37,0,0,0,0,0
448673345,99809,29.74,-0.08,-30.09,84.72,-42.74,-1005.62,-65.19,77.64,-0.06,-0.06,-0.43,0,0,0,0,0
448683393,99809,29.74,-0.08,-30.11,84.71,-42.76,-1004.15,-69.58,79.1,-0.12,0,-0.43,0,0,0,0,0
448693428,99809,29.74,-0.08,-30.17,84.71,-42.82,-1004.15,-73.24,65.92,0,0.06,-0.31,0,0,0,0,0
448703491,99809,29.74,-0.08,-30.2,84.71,-42.86,-1007.08,-67.38,67.38,0,0.12,-0.18,0,0,0,0,0
448714419,99809,29.74,-0.08,-30.29,84.71,-42.94,-1004.15,-75.44,60.06,0,0.37,-0.12,0,0,0,0,0
448724457,99809,29.74,-0.08,-30.35,84.71,-43,-1009.28,-73.24,71.78,0.18,0.43,-0.18,0,0,0,0,0
448734512,99809,29.74,-0.08,-30.41,84.71,-43.06,-1002.69,-71.04,68.12,0.24,0.31,-0.24,0,0,0,0,0
448744560,99809,29.74,-0.08,-30.45,84.71,-43.09,-1002.69,-70.31,68.12,0.18,0.18,-0.12,0,0,0,0,0
448754605,99809,29.74,-0.08,-30.46,84.71,-43.11,-1008.54,-71.78,74.71,0.12,0.06,-0.06,0,0,0,0,0
448765553,99809,29.74,-0.08,-30.5,84.71,-43.14,-1008.54,-68.12,62.26,0.18,0.06,-0.06,0,0,0,0,0
448775595,99809,29.74,-0.08,-30.5,84.71,-43.13,-1006.35,-65.92,76.9,0.12,0,-0.12,0,0,0,0,0
448785643,99809,29.74,-0.08,-30.56,84.71,-43.2,-1003.42,-71.04,52,-0.12,-0.06,-0.18,0,0,0,0,0
448795693,99809,29.74,-0.08,-30.59,84.71,-43.23,-1009.28,-78.37,73.97,0,0.12,-0.06,0,0,0,0,0
448805743,99809,29.74,-0.08,-30.62,84.71,-43.26,-1003.42,-78.37,65.92,0.06,0.12,0.24,0,0,0,0,0
448816679,99809,29.74,-0.08,-30.59,84.71,-43.23,-1005.62,-73.24,75.44,0.12,-0.12,0.24,0,0,0,0,0
448826735,99809,29.74,-0.08,-30.59,84.71,-43.23,-1007.81,-69.58,60.79,0.18,-0.18,0.24,0,0,0,0,0
448836793,99809,29.74,-0.08,-30.61,84.71,-43.25,-1005.62,-69.58,54.2,0.18,0,0.24,0,0,0,0,0
448846836,99809,29.74,-0.08,-30.58,84.71,-43.21,-1004.15,-71.78,82.03,0.37,0,0.24,0,0,0,0,0
448856880,99809,29.74,-0.08,-30.57,84.72,-43.2,-1004.15,-59.33,60.79,0.49,0.06,0.24,0,0,0,0,0
448867807,99809,29.74,-0.08,-30.57,84.72,-43.19,-1010.74,-67.38,71.04,0.31,0.12,0.18,0,0,0,0,0
448877848,99809,29.74,-0.08,-30.58,84.72,-43.21,-1004.15,-68.85,56.4,0,-0.12,0.18,0,0,0,0,0
448887892,99809,29.74,-0.08,-30.53,84.72,-43.15,-1003.42,-76.17,85.69,0.12,-0.24,0.37,0,0,0,0,0
448897936,99809,29.74,-0.08,-30.5,84.72,-43.12,-1005.62,-62.99,58.59,0.24,-0.24,0.43,0,0,0,0,0
448907983,99809,29.74,-0.08,-30.43,84.72,-43.05,-1008.54,-65.19,87.16,0.43,-0.12,0.31,0,0,0,0,0
448918915,99809,29.74,-0.08,-30.4,84.72,-43.02,-1009.28,-58.59,60.79,0.31,-0.06,0.31,0,0,0,0,0
448928950,99809,29.74,-0.08,-30.37,84.72,-42.98,-1004.88,-63.72,68.85,-0.06,-0.18,0.31,0,0,0,0,0
448939001,99809,29.74,-0.08,-30.31,84.73,-42.92,-1007.81,-59.33,77.64,0.24,-0.12,0.31,0,0,0,0,0
448949040,99809,29.74,-0.08,-30.26,84.73,-42.87,-1008.54,-52,60.06,0.37,-0.18,0.31,0,0,0,0,0
448959080,99809,29.74,-0.08,-30.19,84.73,-42.8,-1002.69,-64.45,90.82,0.24,-0.12,0.24,0,0,0,0,0
448970009,99809,29.75,-0.08,-30.18,84.73,-42.78,-1001.95,-67.38,62.26,0,-0.24,0.24,0,0,0,0,0
448980048,99809,29.75,-0.08,-30.12,84.73,-42.73,-1004.15,-59.33,78.37,0.12,-0.12,0.18,0,0,0,0,0
448990093,99809,29.75,-0.08,-30.08,84.73,-42.68,-1006.35,-53.47,73.24,0.49,0.06,0.18,0,0,0,0,0
449000133,99809,29.75,-0.08,-30.06,84.74,-42.66,-1002.69,-54.2,65.92,0.37,0.06,0.12,0,0,0,0,0
449010181,99809,29.75,-0.08,-30.04,84.73,-42.64,-1003.42,-65.92,82.03,-0.12,0.06,0.06,0,0,0,0,0
449021113,99807,29.74,0.08,-30.05,84.74,-42.64,-1004.88,-62.26,71.04,-0.06,0.24,0.12,0,0,0,0,0
449031157,99807,29.74,0.08,-30,84.74,-42.59,-1001.22,-52.73,86.43,0.18,0.24,0.12,0,0,0,0,0
449041180,99807,29.74,0.08,-29.97,84.74,-42.56,-1007.81,-49.8,67.38,0.12,0,0,0,0,0,0,0
449051202,99807,29.74,0.08,-29.97,84.74,-42.56,-1005.62,-57.86,67.38,-0.18,-0.06,-0.12,0,0,0,0,0
449061237,99807,29.74,0.08,-29.98,84.74,-42.58,-1007.08,-64.45,70.31,-0.43,-0.06,-0.18,0,0,0,0,0
449072144,99808,29.74,0,-29.99,84.74,-42.59,-1010.74,-58.59,71.04,0.12,0.12,-0.18,0,0,0,0,0
449082186,99808,29.74,0,-29.97,84.74,-42.56,-1003.42,-54.2,78.37,0.31,0.06,-0.18,0,0,0,0,0
449092242,99808,29.74,0,-29.99,84.74,-42.59,-1007.08,-67.38,70.31,-0.12,0.12,-0.12,0,0,0,0,0
449102286,99808,29.74,0,-30.03,84.74,-42.63,-1004.88,-71.04,71.78,-0.24,0.24,-0.12,0,0,0,0,0
449112331,99808,29.74,0,-30.04,84.74,-42.64,-1003.42,-54.93,74.71,0.12,0.31,-0.18,0,0,0,0,0
449123266,99808,29.75,0,-30.03,84.74,-42.63,-1002.69,-54.93,79.1,0.43,0.18,-0.24,0,0,0,0,0
449137418,99808,29.75,0,-30.1,84.74,-42.7,-1007.81,-73.24,63.72,-0.31,0,-0.18,0,0,0,0,0
449147464,99808,29.75,0,-30.15,84.73,-42.75,-1005.62,-80.57,75.44,-0.37,0.12,-0.18,0,0,0,0,0
449157506,99808,29.75,0,-30.19,84.74,-42.79,-1001.22,-61.52,65.92,0.12,0.24,-0.24,0,0,0,0,0
449167557,99808,29.75,0,-30.22,84.74,-42.81,-1005.62,-63.72,73.97,0.37,0.18,-0.31,0,0,0,0,0
449177620,99808,29.74,0,-30.27,84.73,-42.87,-1006.35,-73.97,69.58,0.06,0.18,-0.31,0,0,0,0,0
449187645,99808,29.74,0,-30.31,84.73,-42.91,-1005.62,-76.9,78.37,-0.24,0.12,-0.24,0,0,0,0,0
449197669,99808,29.74,0,-30.36,84.73,-42.96,-1004.15,-68.12,68.85,0.12,0.12,-0.37,0,0,0,0,0
449207696,99808,29.74,0,-30.37,84.73,-42.96,-1008.54,-53.47,65.19,0.49,0,-0.31,0,0,0,0,0
449217727,99808,29.74,0,-30.38,84.73,-42.97,-1007.81,-63.72,69.58,0.24,0.06,-0.12,0,0,0,0,0
449227742,99807,29.74,0.08,-30.42,84.73,-43.01,-1004.88,-76.17,68.12,-0.37,0.06,-0.06,0,0,0,0,0
449237773,99807,29.74,0.08,-30.45,84.72,-43.05,-1004.88,-76.17,65.19,-0.37,0,0,0,0,0,0,0
449247801,99807,29.74,0.08,-30.46,84.72,-43.05,-1004.15,-65.19,68.12,0.31,-0.12,-0.12,0,0,0,0,0
449257823,99807,29.74,0.08,-30.46,84.72,-43.05,-1003.42,-68.12,69.58,0.61,-0.18,-0.12,0,0,0,0,0
449267853,99807,29.74,0.08,-30.48,84.72,-43.06,-1005.62,-70.31,66.65,0.18,-0.12,-0.06,0,0,0,0,0
449277986,99807,29.74,0.08,-30.5,84.72,-43.09,-1003.42,-71.04,66.65,-0.12,-0.06,-0.12,0,0,0,0,0
449288122,99807,29.74,0.08,-30.47,84.71,-43.06,-1005.62,-60.06,72.51,0.12,-0.31,-0.06,0,0,0,0,0
449298257,99807,29.74,0.08,-30.46,84.71,-43.04,-1006.35,-65.19,66.65,0.37,-0.24,0,0,0,0,0,0
449308398,99807,29.74,0.08,-30.45,84.71,-43.03,-1002.69,-71.78,72.51,0.12,-0.18,0.12,0,0,0,0,0
449318418,99807,29.74,0.08,-30.44,84.71,-43.02,-1008.54,-68.85,69.58,0,-0.06,0.18,0,0,0,0,0
449328436,99807,29.74,0.08,-30.42,84.71,-43,-1006.35,-65.92,71.04,0.06,0,0.18,0,0,0,0,0
449338473,99807,29.74,0.08,-30.42,84.71,-43,-1007.08,-68.12,69.58,0.24,-0.06,0.06,0,0,0,0,0
449348498,99807,29.74,0.08,-30.4,84.71,-42.97,-1005.62,-59.33,69.58,0.18,-0.06,0.12,0,0,0,0,0
449358524,99807,29.74,0.08,-30.38,84.71,-42.96,-1005.62,-66.65,72.51,0.06,0,0.18,0,0,0,0,0
449368557,99807,29.74,0.08,-30.36,84.72,-42.93,-1010.01,-64.45,71.04,0,-0.06,0.24,0,0,0,0,0
449378725,99807,29.74,0.08,-30.29,84.72,-42.86,-1005.62,-50.54,72.51,0.18,-0.12,0.24,0,0,0,0,0
449388762,99807,29.74,0.08,-30.29,84.72,-42.86,-1007.08,-62.26,62.26,0.12,0.12,0.24,0,0,0,0,0
449398786,99807,29.74,0.08,-30.28,84.73,-42.85,-1005.62,-62.26,71.04,-0.18,0.12,0.18,0,0,0,0,0
449408807,99807,29.74,0.08,-30.28,84.72,-42.86,-1003.42,-71.04,67.38,-0.24,-0.24,0,0,0,0,0,0
449418828,99807,29.74,0.08,-30.25,84.72,-42.82,-1002.69,-63.72,78.37,0.18,-0.37,-0.12,0,0,0,0,0
449429780,99807,29.74,0.08,-30.23,84.72,-42.8,-1005.62,-59.33,70.31,0.43,-0.06,0,0,0,0,0,0
449439813,99807,29.74,0.08,-30.21,84.72,-42.78,-1008.54,-57.13,67.38,0.31,0,0.06,0,0,0,0,0
449449834,99807,29.74,0.08,-30.21,84.72,-42.77,-1007.81,-64.45,69.58,0.18,0,0.06,0,0,0,0,0
449459856,99807,29.74,0.08,-30.17,84.72,-42.74,-1004.15,-56.4,73.24,0.06,-0.12,0.06,0,0,0,0,0
449469880,99807,29.74,0.08,-30.13,84.73,-42.7,-1007.81,-52,69.58,0.12,-0.12,0.06,0,0,0,0,0
449480904,99807,29.74,0.08,-30.12,84.73,-42.68,-1008.54,-59.33,73.97,0.31,0.06,0,0,0,0,0,0
449490943,99807,29.74,0.08,-30.13,84.72,-42.69,-1003.42,-68.12,74.71,-0.06,0.06,-0.18,0,0,0,0,0
449500965,99807,29.74,0.08,-30.17,84.72,-42.73,-1004.88,-71.78,69.58,-0.24,0.06,-0.18,0,0,0,0,0
449510989,99807,29.74,0.08,-30.17,84.72,-42.73,-1001.22,-57.13,73.24,0.43,0.12,-0.18,0,0,0,0,0
449521015,99807,29.74,0.08,-30.17,84.72,-42.73,-1005.62,-56.4,71.78,0.49,0,-0.31,0,0,0,0,0
449532041,99808,29.75,0,-30.19,84.72,-42.75,-1004.88,-65.19,67.38,-0.31,-0.18,-0.31,0,0,0,0,0
449542076,99808,29.75,0,-30.2,84.72,-42.76,-1003.42,-68.12,67.38,-0.18,-0.18,-0.12,0,0,0,0,0
449552119,99808,29.75,0,-30.16,84.71,-42.72,-1005.62,-52.73,77.64,0.31,-0.18,-0.12,0,0,0,0,0
449562165,99808,29.75,0,-30.14,84.71,-42.69,-1006.35,-60.79,77.64,0.43,-0.06,-0.12,0,0,0,0,0
449572214,99808,29.75,0,-30.15,84.71,-42.7,-1004.88,-67.38,71.78,-0.06,0,-0.06,0,0,0,0,0
449583146,99808,29.75,0,-30.18,84.71,-42.74,-1006.35,-70.31,63.72,-0.31,-0.12,-0.18,0,0,0,0,0
449593191,99808,29.75,0,-30.2,84.71,-42.76,-1007.81,-59.33,63.72,0.12,-0.06,-0.24,0,0,0,0,0
449603234,99808,29.75,0,-30.2,84.71,-42.75,-1008.54,-62.26,79.83,0.24,0.06,-0.24,0,0,0,0,0
449613273,99808,29.75,0,-30.23,84.7,-42.78,-1001.95,-71.04,72.51,0,0.06,-0.18,0,0,0,0,0
449623315,99808,29.75,0,-30.27,84.7,-42.82,-1006.35,-77.64,71.78,-0.06,0.12,-0.06,0,0,0,0,0
449634241,99805,29.75,0.25,-30.29,84.7,-42.84,-1006.35,-63.72,62.99,0.06,0.06,-0.06,0,0,0,0,0
449644276,99805,29.75,0.25,-30.32,84.71,-42.87,-1007.08,-62.26,58.59,0.31,-0.06,-0.18,0,0,0,0,0
449654299,99805,29.75,0.25,-30.3,84.7,-42.85,-1006.35,-62.99,75.44,0,-0.18,-0.12,0,0,0,0,0
449664438,99805,29.75,0.25,-30.33,84.7,-42.88,-1004.15,-72.51,68.85,-0.31,-0.12,-0.18,0,0,0,0,0
449674462,99805,29.75,0.25,-30.34,84.7,-42.89,-1004.15,-69.58,76.17,0,0.06,-0.12,0,0,0,0,0
449685369,99808,29.75,0,-30.34,84.7,-42.89,-1007.08,-68.12,64.45,0.24,-0.12,0.12,0,0,0,0,0
449695412,99808,29.75,0,-30.34,84.7,-42.89,-1007.08,-70.31,71.04,0.18,0,0.12,0,0,0,0,0
449705440,99808,29.75,0,-30.38,84.7,-42.93,-1000.49,-79.1,68.85,0.06,0.12,0.06,0,0,0,0,0
449715465,99808,29.75,0,-30.38,84.7,-42.93,-1004.15,-65.19,68.85,-0.12,0,0.06,0,0,0,0,0
449725494,99808,29.75,0,-30.38,84.7,-42.93,-1005.62,-65.19,66.65,0.12,-0.06,0,0,0,0,0,0
449736516,99807,29.75,0.08,-30.38,84.7,-42.92,-1001.22,-60.79,74.71,0.37,0.12,-0.06,0,0,0,0,0
449746569,99807,29.75,0.08,-30.35,84.7,-42.89,-1006.35,-65.19,81.3,0.06,0,0.06,0,0,0,0,0
449756618,99807,29.75,0.08,-30.34,84.7,-42.88,-1004.15,-63.72,63.72,-0.06,-0.12,0.18,0,0,0,0,0
449766659,99807,29.75,0.08,-30.33,84.7,-42.87,-1002.69,-67.38,68.12,0.06,-0.06,0.24,0,0,0,0,0
449776704,99807,29.75,0.08,-30.31,84.7,-42.85,-1007.08,-65.19,62.26,0.24,-0.06,0.31,0,0,0,0,0
449787641,99808,29.75,0,-30.31,84.7,-42.85,-1004.15,-71.78,73.24,0.18,0,0.18,0,0,0,0,0
449797679,99808,29.75,0,-30.3,84.7,-42.84,-1002.69,-71.78,77.64,0,0.12,0.24,0,0,0,0,0
449807724,99808,29.75,0,-30.28,84.71,-42.82,-1004.88,-59.33,68.12,0.24,0.12,0.24,0,0,0,0,0
449817765,99808,29.75,0,-30.29,84.71,-42.82,-1004.15,-56.4,62.99,0.31,0.18,0,0,0,0,0,0
449827806,99808,29.75,0,-30.27,84.71,-42.81,-1003.42,-58.59,71.78,0.18,0.12,0.12,0,0,0,0,0
449838738,99809,29.75,-0.08,-30.25,84.72,-42.78,-1006.35,-60.79,73.97,0.18,0.24,0.31,0,0,0,0,0
449848781,99809,29.75,-0.08,-30.22,84.72,-42.75,-1007.81,-54.2,69.58,0.24,0.18,0.24,0,0,0,0,0
449858829,99809,29.75,-0.08,-30.22,84.72,-42.74,-1003.42,-65.92,70.31,0,-0.06,0.06,0,0,0,0,0
449868862,99809,29.75,-0.08,-30.23,84.72,-42.76,-1006.35,-68.85,61.52,-0.31,-0.12,0.06,0,0,0,0,0
449878901,99809,29.75,-0.08,-30.23,84.72,-42.76,-1003.42,-66.65,71.04,-0.18,0,0.06,0,0,0,0,0
449889834,99809,29.75,-0.08,-30.2,84.73,-42.73,-1005.62,-57.13,70.31,0.12,-0.06,0.12,0,0,0,0,0
449899881,99809,29.75,-0.08,-30.17,84.73,-42.69,-1004.15,-59.33,70.31,0.24,-0.12,0.12,0,0,0,0,0
449909926,99809,29.75,-0.08,-30.14,84.72,-42.67,-1007.81,-66.65,73.24,0,-0.24,0.06,0,0,0,0,0
449919973,99809,29.75,-0.08,-30.1,84.72,-42.63,-1007.08,-57.13,73.97,-0.06,-0.31,-0.06,0,0,0,0,0
449930023,99809,29.75,-0.08,-30.08,84.72,-42.61,-1001.95,-54.2,68.12,0.18,-0.12,-0.06,0,0,0,0,0
449940948,99809,29.75,-0.08,-30.07,84.73,-42.6,-1004.15,-52.73,65.92,0.18,0.06,-0.06,0,0,0,0,0
449950991,99809,29.75,-0.08,-30.09,84.73,-42.62,-1004.15,-71.04,73.97,-0.18,0.06,-0.06,0,0,0,0,0
449961037,99809,29.75,-0.08,-30.09,84.73,-42.62,-1004.88,-60.79,68.85,-0.24,0.06,-0.06,0,0,0,0,0
449971079,99809,29.75,-0.08,-30.08,84.73,-42.61,-1004.88,-61.52,78.37,0.18,0.18,0,0,0,0,0,0
449981128,99809,29.75,-0.08,-30.1,84.73,-42.62,-1010.01,-54.93,59.33,0.43,0.06,-0.06,0,0,0,0,0
449992062,99809,29.75,-0.08,-30.13,84.73,-42.65,-1001.95,-62.26,68.12,-0.18,0.12,-0.24,0,0,0,0,0
450002105,99809,29.75,-0.08,-30.16,84.73,-42.69,-1004.88,-66.65,71.04,-0.06,0.24,-0.18,0,0,0,0,0
450012154,99809,29.75,-0.08,-30.16,84.74,-42.69,-1006.35,-50.54,69.58,0.24,0.24,-0.18,0,0,0,0,0
450022196,99809,29.75,-0.08,-30.17,84.74,-42.69,-1007.81,-54.2,73.24,0.12,0.18,-0.24,0,0,0,0,0
450032236,99809,29.75,-0.08,-30.23,84.74,-42.75,-1004.88,-66.65,60.06,-0.24,0.12,-0.31,0,0,0,0,0
450043163,99808,29.75,0,-30.27,84.73,-42.79,-1009.28,-72.51,74.71,-0.31,0.12,-0.24,0,0,0,0,0
450053205,99808,29.75,0,-30.3,84.73,-42.83,-1007.08,-65.19,67.38,0,0.12,-0.24,0,0,0,0,0
450063247,99808,29.75,0,-30.34,84.73,-42.86,-1004.15,-68.85,68.12,0.31,0,-0.31,0,0,0,0,0
450073297,99808,29.75,0,-30.39,84.73,-42.91,-1001.95,-72.51,68.85,0.12,0.06,-0.37,0,0,0,0,0
450083348,99808,29.75,0,-30.48,84.73,-43,-1004.88,-76.17,59.33,-0.12,0.12,-0.37,0,0,0,0,0
450094222,99807,29.75,0.08,-30.5,84.72,-43.02,-1004.88,-62.99,72.51,0.12,0.12,-0.31,0,0,0,0,0
450104336,99807,29.75,0.08,-30.51,84.72,-43.02,-1000.49,-60.06,76.9,0.43,0.12,-0.24,0,0,0,0,0
450114427,99807,29.75,0.08,-30.51,84.72,-43.02,-1001.22,-71.78,90.82,0.37,0.24,-0.18,0,0,0,0,0
450124505,99807,29.75,0.08,-30.57,84.72,-43.08,-1001.22,-73.24,59.33,0.24,0.12,-0.12,0,0,0,0,0
450134579,99807,29.75,0.08,-30.61,84.72,-43.12,-1005.62,-71.04,58.59,0.12,-0.06,-0.12,0,0,0,0,0
450145375,99808,29.75,0,-30.65,84.71,-43.15,-1007.08,-74.71,66.65,0.12,-0.12,-0.18,0,0,0,0,0
450155463,99808,29.75,0,-30.68,84.71,-43.19,-1007.08,-79.83,71.78,0.12,0,-0.12,0,0,0,0,0
450165530,99808,29.75,0,-30.7,84.7,-43.21,-999.02,-79.83,89.36,0.12,0.24,-0.12,0,0,0,0,0
450175595,99808,29.75,0,-30.76,84.7,-43.26,-1002.69,-80.57,65.92,0.12,0.12,0,0,0,0,0,0
450185665,99808,29.75,0,-30.74,84.7,-43.24,-1005.62,-62.99,71.04,0.31,-0.06,0.06,0,0,0,0,0
450196476,99808,29.75,0,-30.8,84.71,-43.29,-1007.81,-70.31,44.68,0.37,0,0.12,0,0,0,0,0
450206591,99808,29.75,0,-30.81,84.71,-43.31,-1000.49,-65.19,57.86,0.06,0.12,0.24,0,0,0,0,0
450216672,99808,29.75,0,-30.79,84.71,-43.29,-1003.42,-76.17,82.76,-0.06,0.12,0.31,0,0,0,0,0
450226735,99808,29.75,0,-30.75,84.71,-43.24,-1005.62,-65.19,76.17,0.12,0,0.43,0,0,0,0,0
450236811,99808,29.75,0,-30.72,84.71,-43.21,-1004.15,-75.44,77.64,0.31,-0.12,0.37,0,0,0,0,0
450247612,99805,29.75,0.25,-30.73,84.72,-43.22,-1007.08,-62.99,48.34,0.18,-0.06,0.31,0,0,0,0,0
450257698,99805,29.75,0.25,-30.7,84.72,-43.19,-1008.54,-72.51,68.12,0.12,-0.24,0.43,0,0,0,0,0
450267771,99805,29.75,0.25,-30.65,84.72,-43.14,-1005.62,-60.06,64.45,0.18,-0.18,0.43,0,0,0,0,0
450277842,99805,29.75,0.25,-30.59,84.73,-43.08,-1003.42,-57.86,76.9,0.31,0.06,0.37,0,0,0,0,0
450287911,99805,29.75,0.25,-30.55,84.73,-43.03,-1007.81,-64.45,79.1,0.12,0.12,0.49,0,0,0,0,0
450298716,99804,29.75,0.34,-30.49,84.74,-42.97,-1010.74,-57.86,63.72,-0.12,-0.12,0.55,0,0,0,0,0
450308826,99804,29.75,0.34,-30.46,84.74,-42.95,-1003.42,-64.45,66.65,-0.18,0,0.43,0,0,0,0,0
450318900,99804,29.75,0.34,-30.45,84.74,-42.94,-1007.08,-60.06,60.79,-0.18,0,0.18,0,0,0,0,0
450328923,99804,29.75,0.34,-30.42,84.74,-42.91,-1009.28,-66.65,70.31,-0.12,-0.31,0.18,0,0,0,0,0
450338951,99804,29.75,0.34,-30.35,84.74,-42.85,-1007.08,-57.86,76.17,0,-0.37,0.18,0,0,0,0,0
450349857,99801,29.75,0.59,-30.3,84.74,-42.79,-1002.69,-60.79,76.9,0.12,-0.18,0.18,0,0,0,0,0
450359886,99801,29.75,0.59,-30.25,84.74,-42.73,-1003.42,-45.41,70.31,0.24,0,0.12,0,0,0,0,0
450370024,99801,29.75,0.59,-30.21,84.75,-42.7,-1004.88,-51.27,69.58,0.18,-0.06,0,0,0,0,0,0
450380156,99801,29.75,0.59,-30.2,84.75,-42.69,-1009.28,-52,54.93,-0.06,-0.06,0.12,0,0,0,0,0
450390297,99801,29.75,0.59,-30.18,84.75,-42.67,-1004.88,-68.12,81.3,-0.24,0,0.06,0,0,0,0,0
450400954,99804,29.75,0.34,-30.17,84.75,-42.66,-1004.88,-65.19,82.03,0,0.12,0,0,0,0,0,0
450410994,99804,29.75,0.34,-30.16,84.75,-42.65,-1007.08,-58.59,76.9,0.24,0.18,-0.06,0,0,0,0,0
450421130,99804,29.75,0.34,-30.18,84.75,-42.66,-1005.62,-62.99,73.24,0.06,0.18,-0.12,0,0,0,0,0
450431155,99804,29.75,0.34,-30.24,84.75,-42.72,-1005.62,-65.19,49.8,-0.06,0.18,-0.06,0,0,0,0,0
450441178,99804,29.75,0.34,-30.24,84.75,-42.72,-1004.15,-65.92,88.62,0,0.31,-0.12,0,0,0,0,0
450452014,99802,29.75,0.5,-30.21,84.75,-42.69,-1003.42,-52.73,75.44,0.37,0,-0.18,0,0,0,0,0
450462051,99802,29.75,0.5,-30.19,84.75,-42.67,-1005.62,-54.2,75.44,0.31,0.06,-0.06,0,0,0,0,0
450472191,99802,29.75,0.5,-30.22,84.75,-42.71,-1004.88,-65.19,65.19,-0.37,0.18,-0.12,0,0,0,0,0
450482336,99802,29.75,0.5,-30.3,84.75,-42.79,-1005.62,-75.44,61.52,-0.49,0.31,-0.18,0,0,0,0,0
450492477,99802,29.75,0.5,-30.32,84.75,-42.81,-1000.49,-71.78,85.69,0.06,0.37,-0.06,0,0,0,0,0
450503132,99804,29.75,0.34,-30.34,84.75,-42.82,-1005.62,-65.92,75.44,0.37,0.37,0,0,0,0,0,0
450513168,99804,29.75,0.34,-30.39,84.75,-42.88,-1004.15,-71.04,61.52,0,0.18,-0.12,0,0,0,0,0
450523190,99804,29.75,0.34,-30.46,84.75,-42.95,-1005.62,-76.9,57.13,-0.18,0.12,-0.06,0,0,0,0,0
450533216,99804,29.75,0.34,-30.47,84.75,-42.95,-1002.69,-74.71,73.24,0.24,0,0.06,0,0,0,0,0
450543357,99804,29.75,0.34,-30.42,84.75,-42.89,-1004.15,-54.2,91.55,0.79,0.18,0,0,0,0,0,0
450554260,99805,29.75,0.25,-30.45,84.76,-42.92,-1001.22,-61.52,60.79,0.55,0.24,0,0,0,0,0,0
450564293,99805,29.75,0.25,-30.53,84.76,-43,-1009.28,-76.17,52,-0.31,0.24,0,0,0,0,0,0
450574316,99805,29.75,0.25,-30.57,84.76,-43.04,-1005.62,-73.97,63.72,-0.43,0.12,0.06,0,0,0,0,0
450584339,99805,29.75,0.25,-30.57,84.76,-43.04,-1002.69,-70.31,76.17,0.37,0.18,0.12,0,0,0,0,0
450594363,99805,29.75,0.25,-30.55,84.76,-43.01,-1003.42,-57.86,71.04,0.73,0.06,0.12,0,0,0,0,0
450605385,99804,29.75,0.34,-30.57,84.76,-43.03,-1005.62,-78.37,69.58,0.12,-0.06,0.12,0,0,0,0,0
450615420,99804,29.75,0.34,-30.6,84.76,-43.07,-1004.15,-71.78,52,-0.55,-0.18,0.06,0,0,0,0,0
450625450,99804,29.75,0.34,-30.61,84.77,-43.08,-1004.15,-54.2,54.2,-0.12,0,0,0,0,0,0,0
450635584,99804,29.75,0.34,-30.56,84.77,-43.02,-1006.35,-48.34,79.1,0.73,0.06,-0.06,0,0,0,0,0
450645611,99804,29.75,0.34,-30.56,84.77,-43.01,-1007.08,-60.79,65.19,0.61,0,0.06,0,0,0,0,0
450656518,99807,29.75,0.09,-30.57,84.77,-43.03,-1004.15,-79.1,76.9,-0.92,0.12,0.24,0,0,0,0,0
450666556,99807,29.75,0.09,-30.6,84.77,-43.07,-1006.35,-68.85,56.4,-0.18,0.06,0.12,0,0,0,0,0
450676584,99807,29.75,0.09,-30.56,84.77,-43.03,-1006.35,-54.93,64.45,0.61,-0.18,0.12,0,0,0,0,0
450686608,99807,29.75,0.09,-30.57,84.77,-43.03,-1007.81,-63.72,62.26,0.31,-0.12,-0.06,0,0,0,0,0
450696634,99807,29.75,0.09,-30.61,84.77,-43.07,-1005.62,-79.1,60.06,-0.37,-0.12,0.06,0,0,0,0,0
450707659,99805,29.75,0.25,-30.56,84.77,-43.03,-1007.08,-72.51,86.43,-0.18,-0.24,0.12,0,0,0,0,0
450717701,99805,29.75,0.25,-30.52,84.77,-42.98,-1007.08,-52.73,66.65,0.67,-0.24,0,0,0,0,0,0
450727728,99805,29.75,0.25,-30.45,84.77,-42.9,-1002.69,-39.55,80.57,0.73,-0.12,-0.12,0,0,0,0,0
450737861,99805,29.75,0.25,-30.44,84.77,-42.89,-1007.08,-60.06,58.59,-0.24,-0.31,0,0,0,0,0,0
450747893,99805,29.75,0.25,-30.44,84.76,-42.9,-1007.81,-79.1,71.78,-0.61,-0.31,0,0,0,0,0,0
450758798,99809,29.75,0,-30.45,84.76,-42.91,-1004.15,-62.26,65.92,-0.12,-0.06,-0.06,0,0,0,0,0
450768851,99809,29.75,0,-30.44,84.76,-42.89,-1004.88,-65.19,73.97,0.49,-0.12,-0.06,0,0,0,0,0
450778895,99809,29.75,0,-30.4,84.75,-42.86,-1004.88,-68.85,87.16,0.18,-0.18,-0.06,0,0,0,0,0
450788950,99809,29.75,0,-30.43,84.75,-42.89,-1008.54,-77.64,60.06,-0.31,-0.37,-0.06,0,0,0,0,0
450799001,99809,29.75,0,-30.41,84.75,-42.87,-1004.88,-68.12,75.44,-0.06,-0.24,0,0,0,0,0,0
450809940,99807,29.76,0.08,-30.36,84.75,-42.81,-1007.81,-44.68,74.71,0.61,0,-0.06,0,0,0,0,0
450819983,99807,29.76,0.08,-30.3,84.75,-42.74,-1007.81,-56.4,93.02,0.49,-0.06,-0.12,0,0,0,0,0
450830021,99807,29.76,0.08,-30.32,84.74,-42.77,-999.76,-69.58,70.31,-0.31,0.06,-0.06,0,0,0,0,0
450840062,99807,29.76,0.08,-30.34,84.74,-42.8,-1001.95,-74.71,72.51,-0.67,0.12,0,0,0,0,0,0
450850110,99807,29.76,0.08,-30.35,84.74,-42.81,-1007.81,-65.19,68.85,-0.18,0.12,0.06,0,0,0,0,0
450861035,99808,29.75,0,-30.37,84.74,-42.82,-1008.54,-70.31,74.71,0.43,0.18,0,0,0,0,0,0
450871078,99808,29.75,0,-30.41,84.74,-42.86,-1005.62,-72.51,72.51,0.18,0.31,-0.06,0,0,0,0,0
450881130,99808,29.75,0,-30.45,84.74,-42.91,-1005.62,-71.78,68.85,-0.24,0.24,-0.06,0,0,0,0,0
450891175,99808,29.75,0,-30.44,84.74,-42.9,-1007.08,-62.26,79.1,-0.06,0.12,-0.06,0,0,0,0,0
450901215,99808,29.75,0,-30.43,84.75,-42.88,-1006.35,-44.68,60.79,0.43,0.24,0,0,0,0,0,0
450912151,99805,29.76,0.25,-30.41,84.75,-42.86,-1003.42,-59.33,79.83,0.12,0.06,-0.06,0,0,0,0,0
450922193,99805,29.76,0.25,-30.46,84.75,-42.91,-1007.81,-69.58,64.45,-0.24,0.24,-0.12,0,0,0,0,0
450932240,99805,29.76,0.25,-30.51,84.75,-42.97,-1007.81,-69.58,65.92,-0.31,0.37,-0.12,0,0,0,0,0
450942283,99805,29.76,0.25,-30.55,84.75,-43,-1002.69,-66.65,72.51,0.24,0.31,-0.12,0,0,0,0,0
450952344,99805,29.76,0.25,-30.57,84.75,-43.02,-1006.35,-65.19,67.38,0.37,0.18,-0.06,0,0,0,0,0
450963270,99807,29.76,0.08,-30.59,84.76,-43.03,-1008.54,-67.38,73.97,0,0.31,0.06,0,0,0,0,0
450973316,99807,29.76,0.08,-30.65,84.76,-43.1,-1002.69,-70.31,53.47,0,0.37,0.12,0,0,0,0,0
450983358,99807,29.76,0.08,-30.65,84.77,-43.1,-1007.08,-57.13,63.72,0.24,0.18,0.06,0,0,0,0,0
450993412,99807,29.76,0.08,-30.63,84.77,-43.07,-1007.08,-51.27,65.92,0.43,-0.06,-0.06,0,0,0,0,0
451003464,99807,29.76,0.08,-30.6,84.77,-43.04,-1003.42,-56.4,80.57,0.31,0.06,-0.06,0,0,0,0,0
451014401,99808,29.76,0,-30.61,84.77,-43.05,-1004.88,-67.38,70.31,-0.24,0,0,0,0,0,0,0
451024449,99808,29.76,0,-30.62,84.77,-43.07,-1004.88,-67.38,57.13,-0.37,-0.12,0.06,0,0,0,0,0
451034494,99808,29.76,0,-30.63,84.77,-43.08,-1005.62,-62.99,54.93,0,-0.18,0.06,0,0,0,0,0
451044531,99808,29.76,0,-30.65,84.77,-43.09,-1008.54,-66.65,60.79,0.12,0,0.06,0,0,0,0,0
451054577,99808,29.76,0,-30.64,84.77,-43.09,-1007.08,-64.45,79.1,0.12,0.18,0,0,0,0,0,0
451065515,99808,29.75,0,-30.64,84.78,-43.08,-1004.88,-57.86,68.12,0.06,0.12,0,0,0,0,0,0
451075563,99808,29.75,0,-30.64,84.78,-43.08,-1009.28,-60.79,64.45,0.18,-0.12,-0.06,0,0,0,0,0
451085605,99808,29.75,0,-30.61,84.78,-43.04,-1005.62,-54.93,68.12,0.24,-0.18,0,0,0,0,0,0
451095646,99808,29.75,0,-30.59,84.77,-43.02,-1004.88,-60.79,84.23,0.12,0.06,-0.18,0,0,0,0,0
451105686,99808,29.75,0,-30.65,84.77,-43.08,-1003.42,-75.44,61.52,-0.06,0.12,-0.12,0,0,0,0,0
451116633,99809,29.76,-0.08,-30.67,84.77,-43.11,-1003.42,-79.83,73.24,-0.06,0,0.06,0,0,0,0,0
451126673,99809,29.76,-0.08,-30.68,84.76,-43.12,-1005.62,-79.1,72.51,0.12,-0.18,0,0,0,0,0,0
451138418,99809,29.76,-0.08,-30.69,84.76,-43.12,-1004.88,-73.24,70.31,0.31,-0.18,0,0,0,0,0,0
451148462,99809,29.76,-0.08,-30.67,84.76,-43.1,-1002.69,-65.92,76.17,0.31,0,0.06,0,0,0,0,0
451158521,99809,29.76,-0.08,-30.68,84.76,-43.11,-1002.69,-68.12,62.26,0.12,0.06,0.18,0,0,0,0,0
451168620,99809,29.76,-0.08,-30.66,84.76,-43.09,-1004.88,-75.44,83.5,0,-0.12,0.12,0,0,0,0,0
451178686,99809,29.76,-0.08,-30.59,84.76,-43.02,-1005.62,-55.66,79.83,0.12,-0.24,0.12,0,0,0,0,0
451188752,99809,29.76,-0.08,-30.55,84.75,-42.97,-1004.15,-68.12,77.64,0.24,-0.12,0.31,0,0,0,0,0
451198813,99809,29.76,-0.08,-30.55,84.76,-42.97,-1005.62,-76.9,71.04,-0.06,0.18,0.55,0,0,0,0,0
451208868,99809,29.76,-0.08,-30.59,84.76,-43.02,-1005.62,-81.3,55.66,-0.31,0.24,0.49,0,0,0,0,0
451218974,99808,29.75,0,-30.6,84.76,-43.02,-1004.88,-77.64,83.5,0.12,0.24,0.18,0,0,0,0,0
451229023,99808,29.75,0,-30.58,84.76,-43,-1004.88,-69.58,84.23,0.49,0.24,0.24,0,0,0,0,0
451239068,99808,29.75,0,-30.52,84.76,-42.94,-997.56,-60.79,79.1,0.24,0.06,0.37,0,0,0,0,0
451249106,99808,29.75,0,-30.51,84.76,-42.94,-1003.42,-70.31,64.45,-0.06,-0.18,0.24,0,0,0,0,0
451259143,99808,29.75,0,-30.51,84.77,-42.93,-1006.35,-62.99,58.59,0.12,0,0.31,0,0,0,0,0
451269839,99808,29.76,0,-30.46,84.77,-42.87,-1004.88,-62.26,82.03,0.49,0.06,0.31,0,0,0,0,0
451279877,99808,29.76,0,-30.41,84.77,-42.82,-1001.22,-57.86,76.17,0.43,0.12,0.31,0,0,0,0,0
451289917,99808,29.76,0,-30.39,84.77,-42.8,-1004.88,-65.92,73.24,-0.12,0.06,0.31,0,0,0,0,0
451299966,99808,29.76,0,-30.41,84.77,-42.82,-1007.81,-72.51,57.13,-0.31,0.06,0.43,0,0,0,0,0
451310009,99808,29.76,0,-30.39,84.78,-42.8,-1004.15,-60.79,62.99,0.06,0.06,0.37,0,0,0,0,0
451320952,99808,29.76,0,-30.37,84.79,-42.78,-1004.15,-47.61,60.06,0.61,0.24,0.24,0,0,0,0,0
451330996,99808,29.76,0,-30.34,84.8,-42.74,-1007.81,-56.4,69.58,0.55,0.24,0.37,0,0,0,0,0
451341048,99808,29.76,0,-30.33,84.8,-42.73,-1004.88,-62.99,68.85,0.12,0.24,0.37,0,0,0,0,0
451351080,99808,29.76,0,-30.3,84.8,-42.7,-1007.08,-58.59,76.9,0,0.18,0.24,0,0,0,0,0
451361123,99808,29.76,0,-30.25,84.81,-42.65,-1004.88,-50.54,65.92,0.37,-0.12,0.18,0,0,0,0,0
451372050,99808,29.76,0,-30.25,84.81,-42.64,-1003.42,-53.47,62.26,0.37,0.18,0.12,0,0,0,0,0
451382083,99808,29.76,0,-30.29,84.82,-42.69,-1004.15,-65.92,57.86,-0.24,0.31,0.06,0,0,0,0,0
451392120,99808,29.76,0,-30.3,84.82,-42.7,-1006.35,-61.52,63.72,-0.12,0.18,0.18,0,0,0,0,0
451402159,99808,29.76,0,-30.24,84.82,-42.64,-1006.35,-50.54,76.17,0.31,-0.06,0.12,0,0,0,0,0
451412199,99808,29.76,0,-30.2,84.83,-42.59,-1009.28,-50.54,69.58,0.61,-0.12,0.06,0,0,0,0,0
451423127,99809,29.76,-0.08,-30.16,84.83,-42.55,-999.76,-54.93,73.97,0.18,0,0.06,0,0,0,0,0
451433166,99809,29.76,-0.08,-30.19,84.83,-42.58,-1005.62,-62.26,55.66,-0.31,-0.06,-0.06,0,0,0,0,0
451443213,99809,29.76,-0.08,-30.18,84.83,-42.57,-1010.01,-57.13,67.38,0.12,-0.06,-0.06,0,0,0,0,0
451453266,99809,29.76,-0.08,-30.16,84.83,-42.54,-1004.15,-56.4,76.9,0.61,0.06,-0.06,0,0,0,0,0
451463319,99809,29.76,-0.08,-30.12,84.83,-42.5,-1003.42,-55.66,80.57,0.12,0.06,0,0,0,0,0,0
451474169,99807,29.76,0.08,-30.13,84.83,-42.51,-1004.15,-68.85,75.44,-0.37,0.06,0,0,0,0,0,0
451484210,99807,29.76,0.08,-30.16,84.83,-42.55,-1007.81,-63.72,59.33,-0.31,0,-0.12,0,0,0,0,0
451494253,99807,29.76,0.08,-30.16,84.83,-42.55,-1007.08,-56.4,71.04,0.12,0,-0.24,0,0,0,0,0
451504303,99807,29.76,0.08,-30.16,84.83,-42.55,-1007.08,-50.54,61.52,0.12,-0.12,-0.31,0,0,0,0,0
451514352,99807,29.76,0.08,-30.16,84.82,-42.54,-1005.62,-66.65,80.57,0,-0.12,-0.24,0,0,0,0,0
451525285,99807,29.76,0.08,-30.17,84.82,-42.56,-1003.42,-71.04,73.24,-0.12,-0.06,-0.12,0,0,0,0,0
451535320,99807,29.76,0.08,-30.2,84.82,-42.58,-1000.49,-65.92,71.04,-0.18,0,-0.24,0,0,0,0,0
451545344,99807,29.76,0.08,-30.21,84.81,-42.6,-1001.22,-68.12,83.5,0,0,-0.43,0,0,0,0,0
451555364,99807,29.76,0.08,-30.26,84.81,-42.64,-1004.88,-64.45,57.86,0.06,-0.06,-0.31,0,0,0,0,0
451565391,99807,29.76,0.08,-30.27,84.8,-42.65,-1007.08,-71.04,82.76,-0.06,0,-0.24,0,0,0,0,0
451576419,99807,29.76,0.08,-30.31,84.8,-42.69,-1002.69,-66.65,62.26,0.12,0.12,-0.06,0,0,0,0,0
451586461,99807,29.76,0.08,-30.28,84.8,-42.67,-1006.35,-57.86,84.96,0.12,0.12,-0.18,0,0,0,0,0
451596599,99807,29.76,0.08,-30.31,84.8,-42.7,-1002.69,-62.99,71.04,0.18,0.12,-0.31,0,0,0,0,0
451606738,99807,29.76,0.08,-30.34,84.8,-42.73,-1003.42,-67.38,70.31,-0.06,0.12,-0.18,0,0,0,0,0
451616767,99807,29.76,0.08,-30.39,84.8,-42.77,-1004.88,-76.9,65.19,-0.24,0,-0.06,0,0,0,0,0
451627550,99807,29.76,0.08,-30.39,84.8,-42.77,-1006.35,-68.12,71.04,0.06,-0.06,0,0,0,0,0,0
451637590,99807,29.76,0.08,-30.39,84.79,-42.77,-1004.88,-66.65,76.9,0.24,-0.06,-0.18,0,0,0,0,0
451647615,99807,29.76,0.08,-30.45,84.79,-42.83,-1005.62,-74.71,65.19,0.12,0.18,-0.12,0,0,0,0,0
451657754,99807,29.76,0.08,-30.48,84.79,-42.86,-1004.88,-75.44,72.51,0.12,0.18,0,0,0,0,0,0
451667774,99807,29.76,0.08,-30.49,84.79,-42.86,-1007.81,-62.26,67.38,0.31,0.18,0.06,0,0,0,0,0
451678674,99807,29.76,0.08,-30.46,84.79,-42.83,-1007.81,-56.4,75.44,0.37,0.12,0.06,0,0,0,0,0
451688712,99807,29.76,0.08,-30.47,84.79,-42.84,-1003.42,-68.12,73.97,0.24,0.06,-0.06,0,0,0,0,0
451698738,99807,29.76,0.08,-30.49,84.79,-42.85,-1008.54,-71.04,71.78,0,0.12,0.06,0,0,0,0,0
451708765,99807,29.76,0.08,-30.5,84.79,-42.87,-1007.08,-65.19,70.31,0,0.37,0.12,0,0,0,0,0
451718793,99807,29.76,0.08,-30.53,84.8,-42.9,-1004.88,-67.38,61.52,0.06,0.37,0.24,0,0,0,0,0
451729818,99805,29.76,0.25,-30.53,84.8,-42.9,-1004.15,-68.12,70.31,0,0.06,0.18,0,0,0,0,0
451739849,99805,29.76,0.25,-30.54,84.8,-42.91,-1010.01,-66.65,64.45,0.18,0,0.12,0,0,0,0,0
451749871,99805,29.76,0.25,-30.54,84.8,-42.9,-1007.08,-65.92,67.38,0.18,-0.06,0.06,0,0,0,0,0
451760009,99805,29.76,0.25,-30.52,84.8,-42.88,-1003.42,-62.99,68.12,0.18,-0.18,0.06,0,0,0,0,0
451770031,99805,29.76,0.25,-30.52,84.8,-42.88,-1002.69,-61.52,63.72,0.06,-0.18,-0.06,0,0,0,0,0
451780927,99805,29.76,0.25,-30.53,84.8,-42.89,-1006.35,-65.19,64.45,-0.12,-0.18,-0.12,0,0,0,0,0
451790967,99805,29.76,0.25,-30.54,84.8,-42.91,-1004.88,-66.65,64.45,-0.18,-0.18,-0.12,0,0,0,0,0
451800991,99805,29.76,0.25,-30.53,84.8,-42.9,-1004.88,-61.52,65.92,0,-0.06,0.06,0,0,0,0,0
451811127,99805,29.76,0.25,-30.53,84.8,-42.9,-1007.08,-65.19,69.58,0.31,0.12,0.12,0,0,0,0,0
451821151,99805,29.76,0.25,-30.53,84.8,-42.89,-1004.88,-65.19,70.31,0.18,0,0.06,0,0,0,0,0
451832049,99805,29.76,0.25,-30.53,84.8,-42.89,-1002.69,-57.86,63.72,0.12,-0.06,-0.06,0,0,0,0,0
451842083,99805,29.76,0.25,-30.52,84.8,-42.88,-1005.62,-66.65,68.85,0.24,-0.06,0.06,0,0,0,0,0
451852107,99805,29.76,0.25,-30.5,84.8,-42.86,-1008.54,-64.45,65.19,0.06,-0.24,0.18,0,0,0,0,0
451862127,99805,29.76,0.25,-30.47,84.8,-42.83,-1007.08,-64.45,74.71,0.06,-0.06,0.18,0,0,0,0,0
451872156,99805,29.76,0.25,-30.44,84.8,-42.79,-1004.88,-58.59,72.51,0.06,0,0.24,0,0,0,0,0
451883181,99802,29.76,0.5,-30.43,84.81,-42.78,-1007.81,-64.45,67.38,0,-0.06,0.12,0,0,0,0,0
451893218,99802,29.76,0.5,-30.42,84.81,-42.77,-1007.08,-60.06,65.92,0.24,0,0.06,0,0,0,0,0
451903238,99802,29.76,0.5,-30.41,84.81,-42.76,-1005.62,-57.86,65.92,0.24,0,0.06,0,0,0,0,0
451913263,99802,29.76,0.5,-30.39,84.81,-42.74,-1005.62,-63.72,74.71,0.12,-0.18,-0.06,0,0,0,0,0
451923286,99802,29.76,0.5,-30.37,84.8,-42.71,-1005.62,-64.45,76.17,0.12,-0.31,-0.12,0,0,0,0,0
451934316,99802,29.76,0.5,-30.34,84.8,-42.68,-1001.95,-56.4,70.31,0,-0.06,0.06,0,0,0,0,0
451944349,99802,29.76,0.5,-30.32,84.8,-42.67,-1007.81,-60.06,76.17,0,0.12,0.06,0,0,0,0,0
451954370,99802,29.76,0.5,-30.33,84.8,-42.68,-1005.62,-59.33,65.19,-0.06,-0.06,-0.18,0,0,0,0,0
451964505,99802,29.76,0.5,-30.31,84.8,-42.66,-1005.62,-50.54,73.97,-0.06,0,-0.24,0,0,0,0,0
451974525,99802,29.76,0.5,-30.29,84.8,-42.64,-1004.88,-58.59,76.9,0,0.06,-0.06,0,0,0,0,0
451985432,99804,29.76,0.34,-30.3,84.8,-42.65,-1003.42,-62.99,71.78,-0.06,0.06,-0.12,0,0,0,0,0
451995468,99804,29.76,0.34,-30.3,84.8,-42.65,-1003.42,-64.45,77.64,-0.12,0,-0.18,0,0,0,0,0
452005606,99804,29.76,0.34,-30.31,84.79,-42.66,-1003.42,-66.65,76.17,-0.12,-0.06,-0.24,0,0,0,0,0
452015627,99804,29.76,0.34,-30.31,84.79,-42.66,-1006.35,-62.99,71.04,0,-0.18,-0.24,0,0,0,0,0
452025647,99804,29.76,0.34,-30.32,84.79,-42.67,-1004.15,-62.99,73.24,0,0,-0.24,0,0,0,0,0
452036552,99805,29.76,0.25,-30.35,84.79,-42.71,-1001.95,-60.06,73.97,0,0.43,-0.24,0,0,0,0,0
452046590,99805,29.76,0.25,-30.38,84.79,-42.73,-1001.95,-57.86,73.97,-0.18,0.31,-0.31,0,0,0,0,0
452056628,99805,29.76,0.25,-30.4,84.79,-42.75,-1007.08,-60.06,72.51,0,0.18,-0.24,0,0,0,0,0
452066653,99805,29.76,0.25,-30.41,84.79,-42.77,-1003.42,-68.12,72.51,-0.06,0.06,-0.12,0,0,0,0,0
452076685,99805,29.76,0.25,-30.45,84.79,-42.81,-1005.62,-73.97,69.58,-0.37,0,-0.18,0,0,0,0,0
452087589,99808,29.76,0,-30.52,84.78,-42.88,-1004.15,-73.97,64.45,-0.24,0.12,-0.24,0,0,0,0,0
452097634,99808,29.76,0,-30.57,84.78,-42.93,-1004.15,-71.78,74.71,0.06,0.31,-0.24,0,0,0,0,0
452107678,99808,29.76,0,-30.63,84.78,-42.99,-1007.08,-68.85,64.45,0.12,0.31,-0.31,0,0,0,0,0
452117725,99808,29.76,0,-30.68,84.78,-43.03,-1004.88,-71.78,69.58,0.24,0.12,-0.24,0,0,0,0,0
452127773,99808,29.76,0,-30.69,84.78,-43.04,-1006.35,-65.92,72.51,0.31,0.06,-0.12,0,0,0,0,0
452138712,99811,29.76,-0.25,-30.69,84.78,-43.04,-1004.15,-60.79,73.97,0.37,0.18,-0.12,0,0,0,0,0
452148756,99811,29.76,-0.25,-30.67,84.78,-43.02,-1004.88,-57.13,80.57,0.24,0,-0.18,0,0,0,0,0
452158802,99811,29.76,-0.25,-30.7,84.78,-43.05,-1002.69,-67.38,63.72,-0.12,0.12,-0.06,0,0,0,0,0
452168842,99811,29.76,-0.25,-30.74,84.78,-43.09,-1004.88,-72.51,65.19,-0.24,0.24,0.06,0,0,0,0,0
452178890,99811,29.76,-0.25,-30.77,84.78,-43.13,-1002.69,-70.31,62.26,-0.24,0.12,0.06,0,0,0,0,0
452189821,99811,29.76,-0.25,-30.79,84.78,-43.14,-1004.88,-71.04,65.19,-0.12,0,0.12,0,0,0,0,0
452199863,99811,29.76,-0.25,-30.82,84.78,-43.17,-1007.81,-76.9,66.65,0.06,-0.06,0,0,0,0,0,0
452209912,99811,29.76,-0.25,-30.83,84.78,-43.18,-1002.69,-67.38,64.45,0.18,-0.12,0,0,0,0,0,0
452219957,99811,29.76,-0.25,-30.82,84.78,-43.17,-1007.81,-63.72,66.65,0.24,-0.06,0.06,0,0,0,0,0
452230004,99811,29.76,-0.25,-30.8,84.78,-43.14,-1009.28,-52,65.19,0.43,0.06,0.06,0,0,0,0,0
452240938,99811,29.76,-0.25,-30.79,84.79,-43.14,-1006.35,-62.26,64.45,0.37,0.06,0.18,0,0,0,0,0
452250978,99811,29.76,-0.25,-30.78,84.79,-43.12,-1004.88,-66.65,71.04,0.18,0,0.18,0,0,0,0,0
452261016,99811,29.76,-0.25,-30.78,84.79,-43.12,-1007.08,-73.97,64.45,-0.12,-0.24,0.18,0,0,0,0,0
452271059,99811,29.76,-0.25,-30.77,84.78,-43.11,-1006.35,-72.51,67.38,-0.12,-0.24,0.24,0,0,0,0,0
452281103,99811,29.76,-0.25,-30.75,84.78,-43.09,-1006.35,-76.9,70.31,0.18,-0.37,0.18,0,0,0,0,0
452292025,99809,29.76,-0.08,-30.72,84.78,-43.06,-1004.88,-67.38,65.92,0.43,-0.37,0.18,0,0,0,0,0
452302068,99809,29.76,-0.08,-30.67,84.78,-43,-1006.35,-58.59,71.78,0.43,-0.24,0.18,0,0,0,0,0
452312108,99809,29.76,-0.08,-30.61,84.78,-42.94,-1007.08,-49.8,71.78,0.43,-0.06,0.18,0,0,0,0,0
452322143,99809,29.76,-0.08,-30.55,84.79,-42.88,-1007.08,-48.34,73.97,0.24,-0.06,0.12,0,0,0,0,0
452332179,99809,29.76,-0.08,-30.52,84.79,-42.84,-1010.01,-52.73,71.78,0.06,-0.12,-0.06,0,0,0,0,0
452343116,99811,29.76,-0.25,-30.49,84.78,-42.82,-1004.88,-63.72,74.71,-0.06,-0.18,0,0,0,0,0,0
452353168,99811,29.76,-0.25,-30.48,84.78,-42.81,-1003.42,-68.12,65.92,-0.24,-0.24,0.12,0,0,0,0,0
452363215,99811,29.76,-0.25,-30.48,84.78,-42.81,-999.02,-70.31,69.58,-0.31,-0.12,0.06,0,0,0,0,0
452373253,99811,29.76,-0.25,-30.47,84.78,-42.81,-1007.81,-65.19,73.24,-0.12,-0.06,0,0,0,0,0,0
452383303,99811,29.76,-0.25,-30.46,84.78,-42.79,-1007.08,-65.92,75.44,0.18,-0.18,-0.12,0,0,0,0,0
452394231,99808,29.76,0,-30.43,84.77,-42.75,-1001.95,-53.47,77.64,0.43,-0.12,-0.18,0,0,0,0,0
452404287,99808,29.76,0,-30.41,84.77,-42.73,-1005.62,-57.13,73.97,0.37,0,-0.06,0,0,0,0,0
452414337,99808,29.76,0,-30.36,84.77,-42.68,-1003.42,-57.13,83.5,0.18,-0.06,-0.06,0,0,0,0,0
452424384,99808,29.76,0,-30.37,84.77,-42.68,-1005.62,-61.52,74.71,0.12,0,-0.24,0,0,0,0,0
452434437,99808,29.76,0,-30.36,84.76,-42.68,-1001.22,-65.92,79.83,-0.06,-0.06,-0.24,0,0,0,0,0
452445375,99805,29.76,0.25,-30.37,84.76,-42.69,-1007.08,-72.51,78.37,-0.12,-0.12,-0.18,0,0,0,0,0
452455428,99805,29.76,0.25,-30.4,84.75,-42.72,-1005.62,-74.71,78.37,-0.06,0.06,-0.24,0,0,0,0,0
452465474,99805,29.76,0.25,-30.42,84.75,-42.74,-1005.62,-65.92,76.17,0.12,0.12,-0.18,0,0,0,0,0
452475518,99805,29.76,0.25,-30.43,84.75,-42.75,-1004.15,-62.26,74.71,0.31,0.12,-0.24,0,0,0,0,0
452485572,99805,29.76,0.25,-30.44,84.75,-42.75,-1002.69,-56.4,71.78,0.24,0.31,-0.06,0,0,0,0,0
452496430,99805,29.76,0.25,-30.46,84.75,-42.77,-1007.08,-63.72,71.78,-0.06,0.24,-0.06,0,0,0,0,0
452506474,99805,29.76,0.25,-30.47,84.75,-42.78,-1004.15,-61.52,78.37,0,0.37,-0.12,0,0,0,0,0
452516526,99805,29.76,0.25,-30.51,84.76,-42.82,-1006.35,-65.92,65.92,0,0.24,-0.12,0,0,0,0,0
452526574,99805,29.76,0.25,-30.55,84.76,-42.86,-1006.35,-68.12,65.92,-0.18,0.18,-0.12,0,0,0,0,0
452536617,99805,29.76,0.25,-30.64,84.76,-42.96,-1006.35,-82.76,62.99,-0.31,0.43,-0.06,0,0,0,0,0
452547552,99805,29.76,0.25,-30.71,84.76,-43.02,-1003.42,-71.78,57.86,0.12,0.37,0.06,0,0,0,0,0
452557594,99805,29.76,0.25,-30.73,84.77,-43.04,-1004.88,-60.79,65.19,0.61,0.31,0,0,0,0,0,0
452567642,99805,29.76,0.25,-30.74,84.77,-43.05,-1009.28,-66.65,69.58,0.31,0.06,-0.06,0,0,0,0,0
452577686,99805,29.76,0.25,-30.73,84.77,-43.04,-1004.88,-61.52,68.12,0.06,-0.12,0,0,0,0,0,0
452587734,99805,29.76,0.25,-30.72,84.77,-43.02,-1006.35,-60.79,64.45,0.06,-0.18,0.06,0,0,0,0,0
452598663,99805,29.76,0.25,-30.71,84.77,-43.02,-1006.35,-61.52,57.86,0.18,-0.12,0.12,0,0,0,0,0
452608702,99805,29.76,0.25,-30.73,84.77,-43.03,-1006.35,-69.58,64.45,0.06,0,0.12,0,0,0,0,0
452618843,99805,29.76,0.25,-30.73,84.77,-43.04,-1005.62,-72.51,66.65,-0.12,-0.12,0.12,0,0,0,0,0
452628865,99805,29.76,0.25,-30.76,84.77,-43.06,-1004.15,-71.78,62.99,0.12,0.06,0.12,0,0,0,0,0
452638884,99805,29.76,0.25,-30.77,84.77,-43.07,-1007.08,-65.19,64.45,0.31,0,0,0,0,0,0,0
452649780,99805,29.76,0.25,-30.76,84.77,-43.06,-1008.54,-65.92,64.45,0.24,-0.24,0,0,0,0,0,0
452659825,99805,29.76,0.25,-30.74,84.77,-43.03,-1004.15,-59.33,68.85,0.12,-0.31,-0.06,0,0,0,0,0
452669850,99805,29.76,0.25,-30.7,84.77,-43,-1004.88,-56.4,68.85,0.18,-0.24,0,0,0,0,0,0
452679988,99805,29.76,0.25,-30.67,84.77,-42.97,-1007.08,-54.2,71.04,0.06,-0.06,0,0,0,0,0,0
452690010,99805,29.76,0.25,-30.67,84.77,-42.96,-1003.42,-60.06,68.12,-0.12,0,0,0,0,0,0,0
452700901,99807,29.76,0.08,-30.64,84.77,-42.94,-1006.35,-65.92,69.58,-0.06,-0.31,0.06,0,0,0,0,0
452710941,99807,29.76,0.08,-30.62,84.77,-42.92,-1004.88,-68.12,68.85,-0.12,-0.24,0.12,0,0,0,0,0
452720965,99807,29.76,0.08,-30.62,84.77,-42.92,-1007.81,-73.24,70.31,-0.18,-0.18,0.12,0,0,0,0,0
452730984,99807,29.76,0.08,-30.6,84.77,-42.9,-1001.22,-61.52,67.38,0,-0.12,0.06,0,0,0,0,0
452741014,99807,29.76,0.08,-30.56,84.76,-42.86,-1002.69,-62.26,79.1,0.18,-0.24,0,0,0,0,0,0
452752043,99805,29.76,0.25,-30.53,84.76,-42.83,-1007.81,-57.86,74.71,0.31,-0.12,-0.12,0,0,0,0,0
452762077,99805,29.76,0.25,-30.47,84.76,-42.77,-1003.42,-52,88.62,0.06,-0.06,-0.12,0,0,0,0,0
452772096,99805,29.76,0.25,-30.47,84.76,-42.76,-1008.54,-59.33,68.85,-0.06,-0.12,-0.12,0,0,0,0,0
452782236,99805,29.76,0.25,-30.45,84.75,-42.75,-1007.81,-61.52,73.97,-0.12,-0.24,-0.24,0,0,0,0,0
452792258,99805,29.76,0.25,-30.45,84.75,-42.74,-1005.62,-62.99,77.64,-0.06,-0.12,-0.24,0,0,0,0,0
452803157,99805,29.76,0.25,-30.46,84.75,-42.75,-1004.88,-70.31,79.83,0.06,0.06,-0.18,0,0,0,0,0
452813190,99805,29.76,0.25,-30.45,84.74,-42.75,-1003.42,-67.38,81.3,-0.06,0,-0.12,0,0,0,0,0
452823334,99805,29.76,0.25,-30.48,84.74,-42.78,-1007.81,-71.78,69.58,-0.24,0,-0.18,0,0,0,0,0
452833363,99805,29.76,0.25,-30.48,84.74,-42.78,-1005.62,-57.86,78.37,-0.06,0.12,-0.24,0,0,0,0,0
452843397,99805,29.76,0.25,-30.5,84.74,-42.8,-1003.42,-57.86,74.71,0.24,0.37,-0.24,0,0,0,0,0
452854301,99807,29.76,0.08,-30.53,84.74,-42.82,-1006.35,-58.59,79.1,0.18,0.43,-0.31,0,0,0,0,0
452864334,99807,29.76,0.08,-30.57,84.74,-42.87,-1004.88,-65.92,78.37,0,0.37,-0.43,0,0,0,0,0
452874360,99807,29.76,0.08,-30.61,84.74,-42.91,-1005.62,-62.99,73.24,-0.24,0.31,-0.37,0,0,0,0,0
452884382,99807,29.76,0.08,-30.65,84.74,-42.94,-1006.35,-67.38,72.51,-0.18,0.18,-0.24,0,0,0,0,0
452894413,99807,29.76,0.08,-30.69,84.74,-42.98,-1001.22,-69.58,64.45,0.06,0.12,-0.12,0,0,0,0,0
452905437,99805,29.76,0.25,-30.75,84.74,-43.04,-1004.15,-76.17,68.85,0.06,0.31,-0.06,0,0,0,0,0
452915473,99805,29.76,0.25,-30.82,84.74,-43.12,-1007.08,-75.44,61.52,0,0.37,-0.06,0,0,0,0,0
452925494,99805,29.76,0.25,-30.87,84.74,-43.17,-1004.88,-61.52,65.19,0.24,0.49,-0.18,0,0,0,0,0
452935529,99805,29.76,0.25,-30.91,84.74,-43.2,-1008.54,-62.99,71.04,0.43,0.37,-0.24,0,0,0,0,0
452945666,99805,29.76,0.25,-30.95,84.74,-43.24,-997.56,-62.99,57.13,0.24,0.06,-0.18,0,0,0,0,0
452956580,99805,29.76,0.25,-30.96,84.75,-43.25,-1005.62,-63.72,67.38,-0.12,0.06,-0.06,0,0,0,0,0
452966622,99805,29.76,0.25,-31,84.75,-43.29,-1006.35,-63.72,60.79,-0.06,0.06,-0.18,0,0,0,0,0
452976671,99805,29.76,0.25,-31,84.75,-43.29,-1008.54,-59.33,65.19,-0.06,0,-0.12,0,0,0,0,0
452986709,99805,29.76,0.25,-31.04,84.75,-43.32,-1007.81,-73.24,67.38,-0.06,0.06,-0.06,0,0,0,0,0
452996765,99805,29.76,0.25,-31.09,84.75,-43.38,-1002.69,-75.44,57.13,-0.12,0.06,0,0,0,0,0,0
453007697,99805,29.76,0.25,-31.09,84.75,-43.38,-1008.54,-68.12,64.45,0,-0.18,0,0,0,0,0,0
453017736,99805,29.76,0.25,-31.09,84.75,-43.38,-1008.54,-66.65,68.12,0.24,-0.12,0,0,0,0,0,0
453027781,99805,29.76,0.25,-31.06,84.75,-43.35,-1002.69,-57.13,74.71,0.31,-0.06,-0.06,0,0,0,0,0
453037823,99805,29.76,0.25,-31.05,84.75,-43.34,-1001.95,-62.26,65.92,0.18,-0.18,-0.06,0,0,0,0,0
453047863,99805,29.76,0.25,-31.04,84.74,-43.32,-1004.88,-62.99,65.92,-0.06,-0.24,0,0,0,0,0,0
453058795,99805,29.76,0.25,-31.01,84.74,-43.3,-1006.35,-60.06,71.04,-0.12,-0.24,-0.12,0,0,0,0,0
453068839,99805,29.76,0.25,-30.99,84.74,-43.28,-1003.42,-65.92,71.78,0.12,-0.31,-0.06,0,0,0,0,0
453078884,99805,29.76,0.25,-30.99,84.74,-43.27,-1006.35,-67.38,68.85,0.12,-0.06,0.06,0,0,0,0,0
453088919,99805,29.76,0.25,-30.98,84.73,-43.27,-1007.08,-77.64,74.71,0,-0.18,0.12,0,0,0,0,0
453098967,99805,29.76,0.25,-30.94,84.73,-43.23,-1003.42,-65.92,68.12,0,-0.55,0.06,0,0,0,0,0
453109898,99807,29.76,0.08,-30.89,84.73,-43.17,-1005.62,-62.26,71.04,0.06,-0.49,0.06,0,0,0,0,0
453119943,99807,29.76,0.08,-30.83,84.73,-43.11,-1004.15,-55.66,78.37,0.24,-0.24,0.12,0,0,0,0,0
453129990,99807,29.76,0.08,-30.8,84.73,-43.08,-1007.81,-61.52,73.24,0.24,-0.12,0.06,0,0,0,0,0
453140110,99807,29.76,0.08,-30.76,84.72,-43.04,-1003.42,-61.52,83.5,0.06,0,0,0,0,0,0,0
453150157,99807,29.76,0.08,-30.75,84.72,-43.03,-1003.42,-65.92,76.9,0.06,0,0,0,0,0,0,0
453160972,99807,29.76,0.08,-30.74,84.72,-43.02,-1007.08,-64.45,77.64,0.31,0.06,-0.06,0,0,0,0,0
453171008,99807,29.76,0.08,-30.72,84.72,-43,-1003.42,-66.65,79.1,-0.12,-0.12,-0.06,0,0,0,0,0
453181052,99807,29.76,0.08,-30.73,84.71,-43.01,-1004.88,-73.97,71.78,-0.18,-0.18,-0.06,0,0,0,0,0
453191094,99807,29.76,0.08,-30.75,84.71,-43.03,-1007.08,-68.85,68.12,0.06,0.12,0,0,0,0,0,0
453201143,99807,29.76,0.08,-30.74,84.72,-43.01,-1002.69,-64.45,78.37,0.43,0.24,0.18,0,0,0,0,0
453212071,99808,29.76,0,-30.72,84.72,-42.99,-1003.42,-58.59,73.24,0.24,0.18,0.06,0,0,0,0,0
453222110,99808,29.76,0,-30.74,84.72,-43.01,-1004.88,-66.65,68.12,-0.18,0,-0.06,0,0,0,0,0
453232158,99808,29.76,0,-30.74,84.72,-43.01,-1008.54,-64.45,73.24,-0.06,0.06,-0.06,0,0,0,0,0
453242199,99808,29.76,0,-30.74,84.72,-43.01,-1004.15,-65.19,71.78,0.31,0.06,0,0,0,0,0,0
453252244,99808,29.76,0,-30.73,84.72,-42.99,-1006.35,-59.33,71.78,0.37,0.06,0,0,0,0,0,0
453263185,99809,29.76,-0.08,-30.74,84.72,-43,-1007.08,-66.65,69.58,0.12,0.06,0,0,0,0,0,0
453273228,99809,29.76,-0.08,-30.76,84.72,-43.02,-1004.88,-68.12,68.12,0,0.06,0,0,0,0,0,0
453283281,99809,29.76,-0.08,-30.77,84.72,-43.04,-1006.35,-61.52,64.45,0.06,0.06,-0.12,0,0,0,0,0
453293326,99809,29.76,-0.08,-30.78,84.72,-43.04,-1004.88,-59.33,68.85,0.12,0,-0.18,0,0,0,0,0
453303380,99809,29.76,-0.08,-30.8,84.73,-43.06,-1007.08,-56.4,62.26,0.18,0.18,-0.18,0,0,0,0,0
453314316,99808,29.77,0,-30.83,84.73,-43.09,-1007.08,-63.72,62.26,0,0.12,-0.06,0,0,0,0,0
453324364,99808,29.77,0,-30.83,84.73,-43.09,-1003.42,-67.38,72.51,0,0,0,0,0,0,0,0
453334414,99808,29.77,0,-30.84,84.73,-43.1,-1007.81,-58.59,60.06,0.18,0,-0.06,0,0,0,0,0
453344462,99808,29.77,0,-30.85,84.73,-43.11,-1002.69,-60.79,64.45,0.12,0,-0.12,0,0,0,0,0
453354511,99808,29.77,0,-30.87,84.73,-43.13,-1006.35,-68.85,64.45,-0.06,-0.06,-0.06,0,0,0,0,0
453365444,99808,29.76,0,-30.9,84.73,-43.16,-1004.15,-66.65,60.79,-0.06,0,-0.06,0,0,0,0,0
453375489,99808,29.76,0,-30.91,84.73,-43.17,-1005.62,-60.79,69.58,0.24,0.06,-0.18,0,0,0,0,0
453385541,99808,29.76,0,-30.93,84.73,-43.18,-1006.35,-61.52,65.92,0.49,0.06,-0.18,0,0,0,0,0
453395590,99808,29.76,0,-30.94,84.73,-43.18,-1006.35,-66.65,70.31,0.12,-0.06,-0.06,0,0,0,0,0
453405639,99808,29.76,0,-30.93,84.73,-43.18,-1007.81,-66.65,71.78,-0.18,-0.12,-0.06,0,0,0,0,0
453416576,99809,29.77,-0.08,-30.95,84.73,-43.2,-1007.81,-66.65,65.92,0.06,0,-0.12,0,0,0,0,0
453426622,99809,29.77,-0.08,-30.96,84.73,-43.21,-1007.81,-62.99,67.38,0.24,-0.06,-0.18,0,0,0,0,0
453436665,99809,29.77,-0.08,-30.98,84.72,-43.23,-999.76,-71.04,71.04,0.12,-0.12,-0.18,0,0,0,0,0
453446719,99809,29.77,-0.08,-30.99,84.72,-43.24,-1001.22,-68.12,67.38,-0.18,-0.18,-0.18,0,0,0,0,0
453456768,99809,29.77,-0.08,-30.98,84.72,-43.23,-1007.81,-67.38,76.9,-0.06,-0.18,-0.18,0,0,0,0,0
453467705,99811,29.77,-0.25,-30.97,84.71,-43.21,-1003.42,-62.99,73.24,0.24,-0.18,-0.12,0,0,0,0,0
453477754,99811,29.77,-0.25,-30.95,84.72,-43.19,-1006.35,-61.52,70.31,0.12,-0.06,0.06,0,0,0,0,0
453487806,99811,29.77,-0.25,-30.94,84.71,-43.18,-1007.08,-66.65,76.9,-0.06,0,0,0,0,0,0,0
453497855,99811,29.77,-0.25,-30.96,84.71,-43.2,-1004.15,-69.58,68.12,0,-0.06,-0.18,0,0,0,0,0
453507893,99811,29.77,-0.25,-30.97,84.71,-43.21,-1001.95,-65.92,74.71,0.18,0.06,-0.18,0,0,0,0,0
453518786,99809,29.77,-0.08,-30.96,84.71,-43.2,-1006.35,-65.19,76.9,0.24,0.12,0.06,0,0,0,0,0
453528838,99809,29.77,-0.08,-30.97,84.71,-43.21,-1004.88,-74.71,71.04,0,0.06,0.12,0,0,0,0,0
453538872,99809,29.77,-0.08,-30.98,84.71,-43.22,-1006.35,-69.58,70.31,-0.18,0.12,0.18,0,0,0,0,0
453548922,99809,29.77,-0.08,-30.98,84.71,-43.22,-1002.69,-68.85,71.78,-0.06,0,0.06,0,0,0,0,0
453558968,99809,29.77,-0.08,-30.95,84.71,-43.19,-1003.42,-62.26,75.44,0.31,-0.18,-0.12,0,0,0,0,0
453569911,99809,29.77,-0.08,-30.95,84.7,-43.19,-1005.62,-68.85,73.97,0.12,-0.12,-0.06,0,0,0,0,0
453579955,99809,29.77,-0.08,-30.94,84.7,-43.18,-1004.15,-70.31,80.57,-0.12,0.12,0.12,0,0,0,0,0
453590000,99809,29.77,-0.08,-30.96,84.7,-43.2,-1004.88,-69.58,68.12,-0.18,0.06,0,0,0,0,0,0
453600036,99809,29.77,-0.08,-30.96,84.7,-43.2,-1007.81,-63.72,71.78,0.18,0.06,-0.06,0,0,0,0,0
453610081,99809,29.77,-0.08,-30.95,84.7,-43.19,-1004.15,-65.19,71.78,0.37,0.18,0.18,0,0,0,0,0
453621013,99809,29.77,-0.08,-30.99,84.71,-43.22,-1004.88,-71.04,68.85,0.06,0.37,0.12,0,0,0,0,0
453631058,99809,29.77,-0.08,-31,84.71,-43.24,-1004.88,-68.85,70.31,0.12,0.18,0.06,0,0,0,0,0
453641095,99809,29.77,-0.08,-30.99,84.71,-43.22,-1004.15,-60.79,71.04,0.24,0.12,0.18,0,0,0,0,0
453651140,99809,29.77,-0.08,-30.97,84.72,-43.2,-1006.35,-55.66,70.31,0.37,0.24,0.18,0,0,0,0,0
453661192,99809,29.77,-0.08,-30.96,84.72,-43.18,-1004.15,-65.19,73.97,0.06,-0.06,0,0,0,0,0,0
453672130,99811,29.77,-0.25,-30.95,84.72,-43.18,-1006.35,-65.19,66.65,-0.18,-0.12,0,0,0,0,0,0
453682174,99811,29.77,-0.25,-30.94,84.72,-43.17,-1007.81,-62.99,66.65,-0.06,0,0.24,0,0,0,0,0
453692222,99811,29.77,-0.25,-30.92,84.72,-43.15,-1004.88,-60.06,66.65,0.24,0.18,0.31,0,0,0,0,0
453702272,99811,29.77,-0.25,-30.92,84.73,-43.15,-1003.42,-62.99,68.12,0.18,0.18,0.12,0,0,0,0,0
453712326,99811,29.77,-0.25,-30.94,84.72,-43.17,-1005.62,-70.31,66.65,-0.12,-0.12,-0.06,0,0,0,0,0
453723260,99809,29.77,-0.08,-30.94,84.73,-43.17,-1001.95,-62.99,62.99,-0.12,-0.12,0,0,0,0,0,0
453733299,99809,29.77,-0.08,-30.92,84.73,-43.14,-1007.81,-52.73,64.45,0.18,0.12,0.18,0,0,0,0,0
453743341,99809,29.77,-0.08,-30.89,84.74,-43.12,-1007.81,-57.86,68.12,0.18,0.06,0.24,0,0,0,0,0
453753388,99809,29.77,-0.08,-30.87,84.74,-43.09,-1004.15,-59.33,69.58,0.06,-0.06,0.06,0,0,0,0,0
453763434,99809,29.77,-0.08,-30.88,84.74,-43.1,-1004.15,-66.65,68.85,-0.24,-0.12,-0.12,0,0,0,0,0
453774372,99811,29.77,-0.25,-30.89,84.74,-43.12,-1006.35,-62.26,56.4,-0.18,-0.18,-0.06,0,0,0,0,0
453784412,99811,29.77,-0.25,-30.88,84.74,-43.11,-1004.88,-60.06,67.38,0.06,-0.12,-0.06,0,0,0,0,0
453794463,99811,29.77,-0.25,-30.86,84.74,-43.09,-1003.42,-66.65,76.17,0.06,-0.06,0.06,0,0,0,0,0
453804504,99811,29.77,-0.25,-30.85,84.74,-43.08,-1001.22,-65.19,69.58,0.06,-0.06,0.12,0,0,0,0,0
453814557,99811,29.77,-0.25,-30.83,84.74,-43.06,-1003.42,-61.52,69.58,0.06,-0.06,0.06,0,0,0,0,0
453825501,99811,29.77,-0.25,-30.81,84.74,-43.04,-1005.62,-57.13,68.85,0.06,0,0.06,0,0,0,0,0
453835565,99811,29.77,-0.25,-30.79,84.74,-43.01,-1006.35,-58.59,71.78,0.18,-0.06,0,0,0,0,0,0
453845604,99811,29.77,-0.25,-30.76,84.73,-42.98,-1006.35,-66.65,79.1,-0.12,-0.31,-0.06,0,0,0,0,0
453855648,99811,29.77,-0.25,-30.74,84.73,-42.97,-1005.62,-68.85,73.24,-0.24,-0.24,0,0,0,0,0,0
453865694,99811,29.77,-0.25,-30.76,84.73,-42.99,-1004.15,-70.31,69.58,-0.24,0.12,0,0,0,0,0,0
453876626,99811,29.77,-0.25,-30.79,84.73,-43.02,-1007.81,-65.19,71.04,0.12,0.18,-0.18,0,0,0,0,0
453886674,99811,29.77,-0.25,-30.79,84.73,-43.02,-1004.88,-65.92,76.17,0.31,0,-0.12,0,0,0,0,0
453896730,99811,29.77,-0.25,-30.76,84.72,-42.99,-1004.88,-63.72,79.1,0.24,-0.18,-0.06,0,0,0,0,0
453906770,99811,29.77,-0.25,-30.74,84.72,-42.96,-1002.69,-61.52,73.24,0,-0.18,-0.06,0,0,0,0,0
453916820,99811,29.77,-0.25,-30.75,84.72,-42.97,-1003.42,-67.38,72.51,-0.06,0.06,0,0,0,0,0,0
453927752,99811,29.77,-0.25,-30.74,84.72,-42.96,-1004.15,-61.52,75.44,0,0,-0.12,0,0,0,0,0
453937801,99811,29.77,-0.25,-30.72,84.72,-42.95,-1001.95,-63.72,77.64,0.06,-0.12,-0.18,0,0,0,0,0
453947848,99811,29.77,-0.25,-30.74,84.72,-42.96,-1007.81,-71.04,73.24,0.06,0,-0.06,0,0,0,0,0
453957888,99811,29.77,-0.25,-30.76,84.71,-42.98,-1001.22,-71.78,73.24,-0.06,0.18,0,0,0,0,0,0
453967936,99811,29.77,-0.25,-30.79,84.71,-43.02,-1003.42,-71.78,66.65,0,0,-0.18,0,0,0,0,0
453978864,99814,29.77,-0.5,-30.82,84.71,-43.04,-1004.88,-68.12,69.58,0.12,0,-0.18,0,0,0,0,0
453988910,99814,29.77,-0.5,-30.81,84.71,-43.03,-1007.08,-62.26,73.24,0.12,0.12,0.06,0,0,0,0,0
453998955,99814,29.77,-0.5,-30.83,84.71,-43.05,-1007.81,-66.65,64.45,0.12,0.06,0,0,0,0,0,0
454009002,99814,29.77,-0.5,-30.84,84.71,-43.06,-1003.42,-64.45,65.19,0.12,-0.06,-0.06,0,0,0,0,0
454019050,99814,29.77,-0.5,-30.85,84.71,-43.06,-1005.62,-65.92,70.31,0.24,0.06,-0.06,0,0,0,0,0
454029977,99811,29.77,-0.25,-30.89,84.71,-43.1,-1002.69,-67.38,73.24,0.31,0.31,-0.18,0,0,0,0,0
454040024,99811,29.77,-0.25,-30.93,84.71,-43.14,-1001.95,-73.24,68.12,0.12,0.24,-0.06,0,0,0,0,0
454050068,99811,29.77,-0.25,-30.97,84.71,-43.18,-1007.81,-73.97,62.99,-0.06,0.12,0.06,0,0,0,0,0
454060111,99811,29.77,-0.25,-31,84.72,-43.2,-1003.42,-65.92,60.06,0.18,0.18,0.12,0,0,0,0,0
454070158,99811,29.77,-0.25,-31.01,84.72,-43.22,-1006.35,-62.99,63.72,0.18,0.06,0,0,0,0,0,0
454081088,99811,29.77,-0.25,-31.01,84.72,-43.22,-1003.42,-63.72,64.45,0.18,-0.06,0,0,0,0,0,0
454091122,99811,29.77,-0.25,-31,84.72,-43.21,-1006.35,-68.12,67.38,0.12,-0.06,0.18,0,0,0,0,0
454101169,99811,29.77,-0.25,-30.99,84.72,-43.2,-1004.15,-65.19,70.31,0.18,0.06,0.18,0,0,0,0,0
454111211,99811,29.77,-0.25,-31.01,84.73,-43.21,-1004.88,-63.72,64.45,0.24,0,-0.06,0,0,0,0,0
454121255,99811,29.77,-0.25,-31.02,84.72,-43.21,-1007.08,-68.12,68.85,0.18,-0.06,-0.06,0,0,0,0,0
454132184,99814,29.77,-0.5,-31.02,84.73,-43.21,-1003.42,-65.92,61.52,0,0,0.24,0,0,0,0,0
454142222,99814,29.77,-0.5,-30.99,84.73,-43.19,-1005.62,-67.38,70.31,-0.12,-0.12,0.31,0,0,0,0,0
454152264,99814,29.77,-0.5,-30.93,84.73,-43.14,-1004.15,-61.52,73.97,-0.12,-0.37,0.12,0,0,0,0,0
454162303,99814,29.77,-0.5,-30.9,84.73,-43.1,-1007.08,-64.45,71.04,0.12,-0.31,0.06,0,0,0,0,0
454172358,99814,29.77,-0.5,-30.89,84.73,-43.09,-1007.08,-64.45,68.12,0.06,-0.12,0.12,0,0,0,0,0
454183289,99811,29.77,-0.25,-30.86,84.73,-43.06,-1004.88,-60.06,69.58,0,-0.12,0.12,0,0,0,0,0
454193340,99811,29.77,-0.25,-30.85,84.73,-43.05,-1002.69,-67.38,65.92,0.12,-0.18,0.12,0,0,0,0,0
454203384,99811,29.77,-0.25,-30.8,84.73,-43,-1004.88,-59.33,76.9,0.18,-0.18,0.06,0,0,0,0,0
454213432,99811,29.77,-0.25,-30.8,84.72,-42.99,-1009.28,-67.38,74.71,0.12,-0.18,-0.12,0,0,0,0,0
454223490,99811,29.77,-0.25,-30.78,84.72,-42.97,-1002.69,-62.99,73.97,0.06,-0.24,-0.18,0,0,0,0,0
454234427,99811,29.77,-0.25,-30.76,84.72,-42.96,-1004.15,-60.79,73.97,0,-0.12,-0.12,0,0,0,0,0
454244473,99811,29.77,-0.25,-30.75,84.71,-42.94,-1007.08,-62.99,74.71,0,-0.06,-0.06,0,0,0,0,0
454254522,99811,29.77,-0.25,-30.74,84.71,-42.93,-1004.88,-60.79,72.51,0.06,-0.12,-0.12,0,0,0,0,0
454264571,99811,29.77,-0.25,-30.71,84.71,-42.91,-1001.95,-62.99,79.83,0.12,-0.06,-0.06,0,0,0,0,0
454274628,99811,29.77,-0.25,-30.69,84.71,-42.88,-1005.62,-66.65,78.37,0.12,-0.18,-0.06,0,0,0,0,0
454285569,99812,29.77,-0.34,-30.66,84.7,-42.85,-1007.08,-62.26,77.64,0.12,-0.18,-0.06,0,0,0,0,0
454295614,99812,29.77,-0.34,-30.66,84.7,-42.85,-1002.69,-65.92,73.24,0,-0.06,-0.12,0,0,0,0,0
454305669,99812,29.77,-0.34,-30.68,84.7,-42.87,-1008.54,-65.92,72.51,0.18,0.06,-0.24,0,0,0,0,0
454315705,99812,29.77,-0.34,-30.7,84.7,-42.88,-1001.95,-63.72,79.83,0.31,0.31,-0.18,0,0,0,0,0
454325752,99812,29.77,-0.34,-30.73,84.7,-42.91,-1001.95,-67.38,71.78,0.24,0.24,-0.18,0,0,0,0,0
454336690,99811,29.77,-0.25,-30.72,84.7,-42.9,-1002.69,-67.38,79.1,0.37,0.12,0.06,0,0,0,0,0
454346742,99811,29.77,-0.25,-30.71,84.7,-42.88,-1004.88,-61.52,76.9,0.24,0.18,0.12,0,0,0,0,0
454356789,99811,29.77,-0.25,-30.74,84.7,-42.92,-1008.54,-66.65,66.65,0.12,0.37,0,0,0,0,0,0
454366829,99811,29.77,-0.25,-30.77,84.7,-42.94,-1002.69,-65.19,70.31,0,0.31,-0.06,0,0,0,0,0
454376870,99811,29.77,-0.25,-30.81,84.71,-42.98,-1007.81,-65.92,66.65,0.06,0.37,0,0,0,0,0,0
454387803,99815,29.77,-0.5,-30.84,84.71,-43.01,-1003.42,-68.85,73.24,0.18,0.49,0.06,0,0,0,0,0
454397860,99815,29.77,-0.5,-30.89,84.71,-43.06,-1007.08,-66.65,68.12,0.18,0.43,-0.12,0,0,0,0,0
454407901,99815,29.77,-0.5,-30.93,84.72,-43.09,-1003.42,-65.19,68.85,0.18,0.31,-0.12,0,0,0,0,0
454417948,99815,29.77,-0.5,-30.98,84.72,-43.14,-1006.35,-67.38,65.19,0.18,0.37,-0.12,0,0,0,0,0
454428002,99815,29.77,-0.5,-31.01,84.72,-43.17,-1003.42,-62.99,65.19,0.06,0.24,-0.12,0,0,0,0,0
454438934,99814,29.78,-0.5,-31.05,84.72,-43.22,-1005.62,-69.58,65.92,0,0.12,-0.18,0,0,0,0,0
454448978,99814,29.78,-0.5,-31.07,84.72,-43.24,-1006.35,-63.72,65.19,0,0,-0.18,0,0,0,0,0
454459010,99814,29.78,-0.5,-31.09,84.72,-43.26,-1003.42,-66.65,66.65,0,-0.06,-0.18,0,0,0,0,0
454469051,99814,29.78,-0.5,-31.11,84.72,-43.28,-1001.95,-62.99,60.79,0.06,0.06,0,0,0,0,0,0
454479093,99814,29.78,-0.5,-31.13,84.72,-43.29,-1007.08,-67.38,68.12,0.12,0.06,-0.06,0,0,0,0,0
454490017,99815,29.78,-0.59,-31.14,84.72,-43.3,-1006.35,-68.85,63.72,0.06,-0.12,0,0,0,0,0,0
454500053,99815,29.78,-0.59,-31.15,84.72,-43.31,-1004.15,-66.65,62.99,0.24,-0.06,0.06,0,0,0,0,0
454510096,99815,29.78,-0.59,-31.16,84.72,-43.32,-1004.88,-66.65,62.26,0.12,0,0.06,0,0,0,0,0
454520133,99815,29.78,-0.59,-31.19,84.73,-43.35,-1007.08,-68.85,65.92,0,0.12,0,0,0,0,0,0
454530168,99815,29.78,-0.59,-31.2,84.73,-43.36,-1004.15,-70.31,66.65,0,0.06,0.12,0,0,0,0,0
454541139,99816,29.77,-0.67,-31.19,84.73,-43.35,-1002.69,-64.45,69.58,-0.06,-0.06,0.06,0,0,0,0,0
454551182,99816,29.77,-0.67,-31.2,84.73,-43.36,-1005.62,-66.65,62.26,-0.12,-0.18,-0.06,0,0,0,0,0
454561231,99816,29.77,-0.67,-31.19,84.72,-43.35,-1004.88,-66.65,68.12,-0.06,-0.37,-0.12,0,0,0,0,0
454571285,99816,29.77,-0.67,-31.2,84.72,-43.36,-1007.08,-70.31,65.19,0.24,-0.18,-0.12,0,0,0,0,0
454581336,99816,29.77,-0.67,-31.21,84.72,-43.36,-1009.28,-62.99,68.12,0.24,-0.06,-0.12,0,0,0,0,0
454592268,99816,29.77,-0.67,-31.2,84.72,-43.35,-1001.95,-64.45,74.71,0,-0.06,-0.12,0,0,0,0,0
454602309,99816,29.77,-0.67,-31.2,84.72,-43.36,-1003.42,-70.31,71.78,0.06,-0.06,0,0,0,0,0,0
454612355,99816,29.77,-0.67,-31.18,84.72,-43.34,-1007.08,-65.19,72.51,0,-0.06,0.06,0,0,0,0,0
454622398,99816,29.77,-0.67,-31.15,84.72,-43.3,-1007.08,-61.52,71.78,0.12,-0.18,0.12,0,0,0,0,0
454632449,99816,29.77,-0.67,-31.12,84.71,-43.27,-1007.08,-65.19,73.24,-0.06,-0.18,0.12,0,0,0,0,0
454643381,99815,29.77,-0.59,-31.11,84.71,-43.26,-1004.15,-66.65,72.51,0,-0.06,0.06,0,0,0,0,0
454653427,99815,29.77,-0.59,-31.07,84.71,-43.23,-1003.42,-68.85,76.17,0.12,-0.31,0.06,0,0,0,0,0
454663472,99815,29.77,-0.59,-31.03,84.71,-43.18,-1002.69,-62.99,78.37,0.18,-0.24,0.06,0,0,0,0,0
454673518,99815,29.77,-0.59,-31.01,84.71,-43.16,-1006.35,-64.45,78.37,0.18,0,0.06,0,0,0,0,0
454683561,99815,29.77,-0.59,-30.99,84.7,-43.14,-1005.62,-62.99,77.64,0.18,0.06,0,0,0,0,0,0
454694498,99811,29.77,-0.25,-30.98,84.71,-43.13,-1004.88,-62.99,73.24,0.12,0.06,0,0,0,0,0,0
454704543,99811,29.77,-0.25,-30.95,84.7,-43.1,-1003.42,-65.19,77.64,0.12,-0.06,0.12,0,0,0,0,0
454714590,99811,29.77,-0.25,-30.91,84.7,-43.06,-1002.69,-62.26,79.1,0.18,0,0.18,0,0,0,0,0
454724636,99811,29.77,-0.25,-30.9,84.7,-43.04,-1005.62,-64.45,70.31,0.06,-0.06,0.12,0,0,0,0,0
454734691,99811,29.77,-0.25,-30.9,84.7,-43.04,-1006.35,-69.58,71.78,0,0,0.06,0,0,0,0,0
454745620,99812,29.77,-0.34,-30.91,84.7,-43.05,-1003.42,-63.72,71.78,-0.06,0.12,-0.06,0,0,0,0,0
454755668,99812,29.77,-0.34,-30.91,84.7,-43.05,-1004.15,-60.06,73.97,0.12,0.12,-0.12,0,0,0,0,0
454765713,99812,29.77,-0.34,-30.9,84.7,-43.05,-1005.62,-65.19,71.78,0.06,0,0,0,0,0,0,0
454775756,99812,29.77,-0.34,-30.92,84.71,-43.06,-1008.54,-65.92,71.04,-0.06,0.18,0,0,0,0,0,0
454785798,99812,29.77,-0.34,-30.95,84.71,-43.09,-1001.95,-62.26,65.19,0,0.37,0,0,0,0,0,0
454796724,99812,29.77,-0.34,-30.98,84.72,-43.12,-1008.54,-60.79,65.92,0.18,0.37,0,0,0,0,0,0
454806766,99812,29.77,-0.34,-31.01,84.72,-43.15,-1008.54,-67.38,67.38,0.18,0.18,-0.12,0,0,0,0,0
454816809,99812,29.77,-0.34,-31.06,84.72,-43.2,-1006.35,-69.58,64.45,-0.12,0.18,-0.24,0,0,0,0,0
454826843,99812,29.77,-0.34,-31.1,84.72,-43.24,-1005.62,-68.12,68.12,-0.24,0.12,-0.18,0,0,0,0,0
454836894,99812,29.77,-0.34,-31.12,84.72,-43.26,-1009.28,-62.99,63.72,0.06,0,-0.24,0,0,0,0,0
454847817,99811,29.77,-0.25,-31.14,84.72,-43.28,-1003.42,-63.72,63.72,0.18,-0.06,-0.12,0,0,0,0,0
454857857,99811,29.77,-0.25,-31.16,84.71,-43.29,-1007.81,-69.58,70.31,0.12,0.06,-0.06,0,0,0,0,0
454867892,99811,29.77,-0.25,-31.17,84.72,-43.31,-1007.08,-64.45,63.72,0.12,0.12,0,0,0,0,0,0
454877937,99811,29.77,-0.25,-31.19,84.72,-43.33,-1007.08,-65.19,68.12,0.18,0.18,0,0,0,0,0,0
454887978,99811,29.77,-0.25,-31.21,84.72,-43.35,-1002.69,-61.52,60.06,0.06,0,-0.12,0,0,0,0,0
454898911,99811,29.77,-0.25,-31.24,84.72,-43.37,-1007.08,-68.12,63.72,0,-0.06,-0.12,0,0,0,0,0
454908947,99811,29.77,-0.25,-31.25,84.72,-43.39,-1004.15,-65.92,65.19,0.06,-0.06,-0.12,0,0,0,0,0
454918973,99811,29.77,-0.25,-31.26,84.72,-43.39,-1006.35,-70.31,69.58,-0.06,-0.18,-0.06,0,0,0,0,0
454929106,99811,29.77,-0.25,-31.26,84.72,-43.4,-1007.81,-68.85,67.38,-0.12,-0.12,-0.06,0,0,0,0,0
454939245,99811,29.77,-0.25,-31.29,84.72,-43.43,-1004.15,-69.58,65.92,0,0.06,-0.06,0,0,0,0,0
454950020,99811,29.77,-0.25,-31.32,84.71,-43.45,-1004.88,-72.51,70.31,0.06,0,-0.12,0,0,0,0,0
454960050,99811,29.77,-0.25,-31.34,84.71,-43.48,-1003.42,-69.58,68.85,0.06,0.06,-0.18,0,0,0,0,0
454970070,99811,29.77,-0.25,-31.36,84.71,-43.49,-1008.54,-71.78,72.51,0,-0.06,-0.12,0,0,0,0,0
454980210,99811,29.77,-0.25,-31.35,84.71,-43.48,-1000.49,-67.38,71.78,0.12,-0.24,-0.12,0,0,0,0,0
454990348,99811,29.77,-0.25,-31.35,84.7,-43.48,-1009.28,-74.71,69.58,0.18,-0.18,0.06,0,0,0,0,0
455001120,99812,29.77,-0.34,-31.37,84.7,-43.5,-1005.62,-72.51,66.65,0,0,0.06,0,0,0,0,0
455011146,99812,29.77,-0.34,-31.37,84.7,-43.5,-1006.35,-68.12,71.04,-0.06,-0.06,0,0,0,0,0,0
455021168,99812,29.77,-0.34,-31.36,84.7,-43.49,-1004.15,-72.51,75.44,-0.06,-0.12,0,0,0,0,0,0
455031312,99812,29.77,-0.34,-31.34,84.7,-43.48,-1007.81,-66.65,73.97,-0.06,0,0.12,0,0,0,0,0
455041330,99812,29.77,-0.34,-31.33,84.7,-43.46,-1004.15,-68.12,77.64,0.12,0.06,0.12,0,0,0,0,0
455052226,99814,29.78,-0.5,-31.31,84.7,-43.44,-1006.35,-66.65,73.97,0.12,0,0.18,0,0,0,0,0
455062263,99814,29.78,-0.5,-31.3,84.7,-43.43,-1002.69,-65.92,74.71,0.06,0.18,0.18,0,0,0,0,0
455072292,99814,29.78,-0.5,-31.28,84.7,-43.41,-1004.15,-64.45,71.78,0,0.06,0.12,0,0,0,0,0
455082314,99814,29.78,-0.5,-31.25,84.7,-43.38,-1007.08,-66.65,74.71,0.06,-0.18,0.12,0,0,0,0,0
455092521,99814,29.78,-0.5,-31.22,84.7,-43.35,-1004.15,-63.72,73.97,0.06,-0.06,0.18,0,0,0,0,0
455103343,99814,29.77,-0.5,-31.22,84.7,-43.35,-1002.69,-68.12,68.85,0.06,0.18,0.24,0,0,0,0,0
455113441,99814,29.77,-0.5,-31.22,84.7,-43.35,-1003.42,-67.38,71.78,-0.06,0.24,0.24,0,0,0,0,0
455123515,99814,29.77,-0.5,-31.21,84.71,-43.34,-1004.15,-59.33,68.12,-0.12,0.12,0.12,0,0,0,0,0
455133583,99814,29.77,-0.5,-31.2,84.71,-43.33,-1006.35,-61.52,69.58,0.12,0,0,0,0,0,0,0
455143665,99814,29.77,-0.5,-31.19,84.71,-43.31,-1003.42,-57.86,71.04,0.18,0,0,0,0,0,0,0
455154457,99816,29.77,-0.67,-31.15,84.71,-43.28,-1010.01,-60.06,71.78,0,-0.18,0.06,0,0,0,0,0
455164543,99816,29.77,-0.67,-31.12,84.71,-43.24,-1005.62,-62.99,72.51,-0.06,-0.31,0,0,0,0,0,0
455174612,99816,29.77,-0.67,-31.12,84.71,-43.24,-1003.42,-62.26,66.65,0.06,0,0,0,0,0,0,0
455184674,99816,29.77,-0.67,-31.12,84.71,-43.25,-1005.62,-64.45,68.12,-0.18,0,0,0,0,0,0,0
455194741,99816,29.77,-0.67,-31.13,84.71,-43.26,-1005.62,-67.38,72.51,-0.18,0.06,-0.06,0,0,0,0,0
455205563,99814,29.77,-0.5,-31.13,84.71,-43.26,-1005.62,-64.45,73.24,-0.06,0.06,-0.06,0,0,0,0,0
455215662,99814,29.77,-0.5,-31.13,84.71,-43.26,-1005.62,-59.33,65.19,0.12,0.06,-0.06,0,0,0,0,0
455225726,99814,29.77,-0.5,-31.13,84.71,-43.26,-1004.88,-61.52,71.04,0.24,0.18,0.06,0,0,0,0,0
455235788,99814,29.77,-0.5,-31.14,84.72,-43.27,-1005.62,-60.06,66.65,0.06,0.24,0,0,0,0,0,0
455245850,99814,29.77,-0.5,-31.17,84.72,-43.3,-1007.08,-64.45,62.99,0,0.18,0,0,0,0,0,0
455256641,99812,29.77,-0.34,-31.18,84.72,-43.31,-1006.35,-63.72,65.92,0.06,0.06,0,0,0,0,0,0
455266727,99812,29.77,-0.34,-31.18,84.72,-43.31,-1004.88,-62.99,65.92,0,-0.18,-0.12,0,0,0,0,0
455276793,99812,29.77,-0.34,-31.21,84.72,-43.34,-1007.08,-68.85,65.19,0.06,-0.12,-0.31,0,0,0,0,0
455286857,99812,29.77,-0.34,-31.25,84.72,-43.38,-1006.35,-66.65,65.19,0.06,0.12,-0.24,0,0,0,0,0
455296931,99812,29.77,-0.34,-31.27,84.72,-43.39,-1007.08,-67.38,71.78,0.12,0.06,-0.18,0,0,0,0,0
455307741,99814,29.78,-0.5,-31.27,84.71,-43.4,-1006.35,-65.19,67.38,0.06,-0.24,-0.24,0,0,0,0,0
455317826,99814,29.78,-0.5,-31.27,84.71,-43.39,-1004.88,-60.06,65.92,0.06,-0.18,-0.12,0,0,0,0,0
455327867,99814,29.78,-0.5,-31.29,84.71,-43.41,-1004.88,-68.85,70.31,0,-0.06,-0.24,0,0,0,0,0
455337905,99814,29.78,-0.5,-31.29,84.71,-43.42,-1004.15,-65.92,71.04,-0.18,-0.24,-0.31,0,0,0,0,0
455347948,99814,29.78,-0.5,-31.28,84.7,-43.41,-1005.62,-68.85,73.24,-0.18,-0.24,-0.12,0,0,0,0,0
455358881,99815,29.78,-0.59,-31.28,84.7,-43.41,-1029.79,-70.31,70.31,0,-0.31,-0.12,0,0,0,0,0
455368920,99815,29.78,-0.59,-31.28,84.69,-43.41,-990.23,-72.51,68.12,-0.12,-0.37,-0.12,0,0,0,0,0
455378973,99815,29.78,-0.59,-31.28,84.69,-43.41,-999.76,-76.17,73.97,-0.06,-0.37,-0.12,0,0,0,0,0
455389009,99815,29.78,-0.59,-31.29,84.68,-43.41,-1010.74,-73.24,65.92,0.31,-0.37,-0.12,0,0,0,0,0
455399052,99815,29.78,-0.59,-31.22,84.68,-43.34,-1012.94,-57.86,91.55,0.55,-0.12,0,0,0,0,0,0
455409984,99815,29.78,-0.59,-31.24,84.68,-43.36,-997.56,-75.44,66.65,0.31,0.06,0.12,0,0,0,0,0
455420018,99815,29.78,-0.59,-31.27,84.68,-43.39,-1003.42,-70.31,65.92,-0.18,0.06,-0.06,0,0,0,0,0
455430068,99815,29.78,-0.59,-31.29,84.68,-43.41,-1016.6,-73.97,73.24,0,0.18,0,0,0,0,0,0
455440108,99815,29.78,-0.59,-31.29,84.68,-43.41,-1001.22,-62.99,66.65,0.31,-0.06,0,0,0,0,0,0
455450147,99815,29.78,-0.59,-31.26,84.67,-43.37,-994.63,-67.38,84.23,0.18,-0.12,0,0,0,0,0,0
455461069,99815,29.78,-0.59,-31.26,84.67,-43.37,-1010.01,-79.1,80.57,-0.06,0.06,0.12,0,0,0,0,0
455471115,99815,29.78,-0.59,-31.27,84.67,-43.38,-1001.95,-65.92,65.92,0.31,0.06,0.06,0,0,0,0,0
455481152,99815,29.78,-0.59,-31.25,84.68,-43.35,-1001.22,-54.93,62.26,0.37,-0.12,0.06,0,0,0,0,0
455491191,99815,29.78,-0.59,-31.24,84.67,-43.35,-1004.15,-72.51,76.17,0.06,-0.12,-0.06,0,0,0,0,0
455501226,99815,29.78,-0.59,-31.23,84.67,-43.34,-1007.81,-62.26,77.64,-0.06,0.06,-0.12,0,0,0,0,0
455512163,99815,29.78,-0.59,-31.25,84.67,-43.35,-1003.42,-71.78,79.83,0.24,0.24,0,0,0,0,0,0
455522195,99815,29.78,-0.59,-31.26,84.67,-43.36,-1001.95,-61.52,68.85,0.43,0.24,0,0,0,0,0,0
455532245,99815,29.78,-0.59,-31.32,84.68,-43.42,-1010.01,-74.71,55.66,0.06,0.24,0.06,0,0,0,0,0
455542295,99815,29.78,-0.59,-31.31,84.68,-43.41,-1004.88,-65.92,66.65,-0.24,0.06,0.31,0,0,0,0,0
455552348,99815,29.78,-0.59,-31.32,84.68,-43.42,-1005.62,-74.71,71.04,0.06,0.06,0.18,0,0,0,0,0
455563217,99815,29.78,-0.59,-31.31,84.68,-43.4,-1003.42,-59.33,67.38,0.24,0.18,0.18,0,0,0,0,0
455573270,99815,29.78,-0.59,-31.3,84.69,-43.39,-1007.81,-66.65,73.24,0.12,0.06,0.12,0,0,0,0,0
455583312,99815,29.78,-0.59,-31.31,84.69,-43.41,-1005.62,-65.92,62.26,0.12,0,0,0,0,0,0,0
455593356,99815,29.78,-0.59,-31.34,84.69,-43.44,-1004.88,-64.45,50.54,0,0.06,0.12,0,0,0,0,0
455603400,99815,29.78,-0.59,-31.33,84.69,-43.42,-1004.15,-64.45,69.58,0.12,0,0.18,0,0,0,0,0
455614332,99816,29.78,-0.67,-31.32,84.7,-43.41,-1006.35,-59.33,65.92,0.37,0.12,0.18,0,0,0,0,0
455624386,99816,29.78,-0.67,-31.32,84.7,-43.41,-1003.42,-68.85,73.24,0.18,0.24,0.12,0,0,0,0,0
455634432,99816,29.78,-0.67,-31.32,84.7,-43.42,-1001.95,-66.65,73.24,-0.18,0.18,0.12,0,0,0,0,0
455644474,99816,29.78,-0.67,-31.34,84.71,-43.43,-1006.35,-60.79,54.93,-0.12,0.12,0.18,0,0,0,0,0
455654519,99816,29.78,-0.67,-31.33,84.71,-43.42,-1008.54,-54.2,63.72,0.24,0.18,0.12,0,0,0,0,0
455665450,99815,29.78,-0.59,-31.34,84.72,-43.42,-1007.81,-55.66,65.92,0.18,0.18,-0.06,0,0,0,0,0
455675477,99815,29.78,-0.59,-31.33,84.72,-43.42,-1001.95,-66.65,71.78,0,-0.06,-0.06,0,0,0,0,0
455685512,99815,29.78,-0.59,-31.31,84.71,-43.4,-1007.81,-67.38,80.57,-0.12,-0.12,-0.06,0,0,0,0,0
455695650,99815,29.78,-0.59,-31.28,84.71,-43.37,-1008.54,-57.86,71.04,-0.06,-0.18,0,0,0,0,0,0
455705788,99815,29.78,-0.59,-31.28,84.72,-43.37,-1005.62,-62.99,58.59,-0.18,-0.18,0.06,0,0,0,0,0
455716565,99815,29.78,-0.59,-31.28,84.71,-43.37,-1002.69,-69.58,68.85,-0.12,-0.06,0.06,0,0,0,0,0
455726600,99815,29.78,-0.59,-31.26,84.71,-43.35,-1007.81,-57.86,81.3,0.12,0,-0.24,0,0,0,0,0
455736658,99815,29.78,-0.59,-31.25,84.71,-43.34,-1005.62,-62.99,78.37,0.24,-0.06,-0.31,0,0,0,0,0
455746707,99815,29.78,-0.59,-31.23,84.71,-43.32,-1003.42,-59.33,78.37,0,-0.06,-0.12,0,0,0,0,0
455756757,99815,29.78,-0.59,-31.26,84.71,-43.35,-1006.35,-71.04,63.72,-0.31,0,-0.06,0,0,0,0,0
455767690,99815,29.78,-0.59,-31.28,84.71,-43.37,-1009.28,-64.45,65.19,-0.06,0,-0.12,0,0,0,0,0
455777734,99815,29.78,-0.59,-31.28,84.7,-43.37,-1002.69,-64.45,72.51,0.24,0,-0.18,0,0,0,0,0
455787774,99815,29.78,-0.59,-31.26,84.7,-43.35,-1007.08,-65.92,84.96,0.18,-0.18,-0.31,0,0,0,0,0
455797817,99815,29.78,-0.59,-31.25,84.69,-43.33,-1001.95,-62.26,86.43,-0.06,0,-0.31,0,0,0,0,0
455807860,99815,29.78,-0.59,-31.27,84.69,-43.36,-1006.35,-68.85,79.1,-0.06,0.18,-0.24,0,0,0,0,0
455818792,99815,29.78,-0.59,-31.32,84.69,-43.4,-1004.15,-68.85,66.65,0.12,0.18,-0.24,0,0,0,0,0
455828840,99815,29.78,-0.59,-31.34,84.69,-43.43,-1006.35,-61.52,65.19,0.12,0.18,-0.12,0,0,0,0,0
455838877,99815,29.78,-0.59,-31.35,84.69,-43.44,-1007.08,-70.31,73.97,0.12,0.06,-0.12,0,0,0,0,0
455848915,99815,29.78,-0.59,-31.37,84.69,-43.46,-1001.95,-73.97,84.23,-0.06,0.24,-0.18,0,0,0,0,0
455858965,99815,29.78,-0.59,-31.39,84.68,-43.48,-1003.42,-70.31,79.1,-0.06,0.18,-0.18,0,0,0,0,0
455869883,99815,29.78,-0.59,-31.46,84.69,-43.54,-1007.08,-67.38,63.72,0.18,0.43,-0.18,0,0,0,0,0
455879919,99815,29.78,-0.59,-31.49,84.69,-43.58,-1004.15,-66.65,73.24,0.12,0.49,-0.06,0,0,0,0,0
455889958,99815,29.78,-0.59,-31.56,84.69,-43.65,-1004.15,-73.97,54.93,-0.06,0.37,0.06,0,0,0,0,0
455899996,99815,29.78,-0.59,-31.6,84.69,-43.69,-1002.69,-72.51,68.12,-0.18,0.12,-0.12,0,0,0,0,0
455910041,99815,29.78,-0.59,-31.63,84.69,-43.72,-1007.08,-68.85,76.9,0.12,0.18,-0.37,0,0,0,0,0
455920972,99814,29.78,-0.5,-31.65,84.69,-43.73,-1006.35,-63.72,72.51,0.37,0.24,-0.12,0,0,0,0,0
455931007,99814,29.78,-0.5,-31.69,84.69,-43.77,-1005.62,-73.97,68.12,-0.12,0.24,-0.06,0,0,0,0,0
455941145,99814,29.78,-0.5,-31.75,84.69,-43.83,-1001.22,-69.58,60.79,-0.12,0.31,-0.06,0,0,0,0,0
455951168,99814,29.78,-0.5,-31.77,84.7,-43.85,-1004.15,-61.52,62.99,0.31,0.24,0,0,0,0,0,0
455961191,99814,29.78,-0.5,-31.8,84.7,-43.88,-1008.54,-67.38,62.26,0.55,0.24,0,0,0,0,0,0
455972090,99815,29.78,-0.59,-31.83,84.7,-43.9,-1003.42,-70.31,69.58,0.24,0.31,0.06,0,0,0,0,0
455982140,99815,29.78,-0.59,-31.86,84.71,-43.94,-1001.95,-68.85,58.59,-0.12,0.06,0,0,0,0,0,0
455992185,99815,29.78,-0.59,-31.9,84.71,-43.97,-1008.54,-70.31,57.13,-0.06,-0.06,-0.06,0,0,0,0,0
456002225,99815,29.78,-0.59,-31.88,84.71,-43.95,-1005.62,-54.93,61.52,0.24,-0.06,0,0,0,0,0,0
456012280,99815,29.78,-0.59,-31.89,84.71,-43.96,-1005.62,-69.58,64.45,0.18,-0.12,0.06,0,0,0,0,0
456023214,99815,29.78,-0.59,-31.85,84.71,-43.92,-1001.95,-59.33,73.24,-0.12,-0.18,0,0,0,0,0,0
456033256,99815,29.78,-0.59,-31.84,84.71,-43.92,-1004.88,-71.04,67.38,-0.12,-0.24,0,0,0,0,0,0
456043302,99815,29.78,-0.59,-31.83,84.71,-43.9,-1010.01,-61.52,66.65,-0.06,-0.24,-0.12,0,0,0,0,0
456053345,99815,29.78,-0.59,-31.83,84.71,-43.9,-1008.54,-64.45,65.19,-0.18,-0.12,-0.06,0,0,0,0,0
456063392,99815,29.78,-0.59,-31.84,84.7,-43.92,-1005.62,-74.71,68.12,0,-0.06,0.06,0,0,0,0,0
456074321,99815,29.78,-0.59,-31.8,84.71,-43.88,-1007.08,-58.59,67.38,-0.06,-0.18,0.12,0,0,0,0,0
456084358,99815,29.78,-0.59,-31.77,84.7,-43.84,-1006.35,-63.72,74.71,0.06,-0.12,0.12,0,0,0,0,0
456094399,99815,29.78,-0.59,-31.73,84.7,-43.8,-1002.69,-65.19,80.57,0.31,-0.18,0.06,0,0,0,0,0
456104441,99815,29.78,-0.59,-31.69,84.7,-43.75,-1004.15,-61.52,71.04,0.18,-0.31,0.06,0,0,0,0,0
456114482,99815,29.78,-0.59,-31.66,84.7,-43.73,-1003.42,-65.92,71.78,0,-0.24,0.06,0,0,0,0,0
456125415,99814,29.78,-0.5,-31.66,84.7,-43.72,-1004.88,-65.19,69.58,0.06,-0.12,-0.12,0,0,0,0,0
456135450,99814,29.78,-0.5,-31.63,84.69,-43.7,-1000.49,-71.04,82.76,0,-0.12,0,0,0,0,0,0
456145476,99814,29.78,-0.5,-31.63,84.69,-43.69,-1001.95,-75.44,79.83,0,0,0.06,0,0,0,0,0
456155495,99814,29.78,-0.5,-31.6,84.69,-43.67,-1004.15,-60.06,78.37,0.18,-0.06,-0.12,0,0,0,0,0
456165524,99814,29.78,-0.5,-31.61,84.69,-43.67,-1008.54,-67.38,70.31,0.18,0,-0.12,0,0,0,0,0
456176550,99815,29.78,-0.59,-31.58,84.68,-43.65,-997.56,-62.99,83.5,-0.06,0.06,-0.06,0,0,0,0,0
456186590,99815,29.78,-0.59,-31.58,84.68,-43.65,-1005.62,-68.85,68.85,-0.06,-0.06,0,0,0,0,0,0
456196641,99815,29.78,-0.59,-31.54,84.68,-43.6,-1001.22,-60.06,82.76,0.31,-0.06,0.06,0,0,0,0,0
456206690,99815,29.78,-0.59,-31.52,84.68,-43.58,-1004.88,-71.04,84.96,0.18,0.12,0.06,0,0,0,0,0
456216734,99815,29.78,-0.59,-31.53,84.68,-43.6,-1004.15,-58.59,61.52,-0.18,0.18,0,0,0,0,0,0
456227668,99815,29.78,-0.59,-31.57,84.68,-43.63,-1004.88,-76.9,68.85,-0.24,0,-0.06,0,0,0,0,0
456237708,99815,29.78,-0.59,-31.57,84.68,-43.64,-1006.35,-65.92,65.92,0,0,0.06,0,0,0,0,0
456247761,99815,29.78,-0.59,-31.57,84.68,-43.64,-1001.22,-65.92,76.9,0.24,0.12,-0.12,0,0,0,0,0
456257807,99815,29.78,-0.59,-31.57,84.68,-43.62,-1003.42,-62.99,79.1,0.37,0.18,-0.06,0,0,0,0,0
456267847,99815,29.78,-0.59,-31.55,84.68,-43.61,-1008.54,-65.92,77.64,-0.06,0.18,0.12,0,0,0,0,0
456278780,99814,29.78,-0.5,-31.58,84.68,-43.64,-1005.62,-68.85,70.31,-0.37,0.24,0,0,0,0,0,0
456288824,99814,29.78,-0.5,-31.62,84.69,-43.68,-1002.69,-69.58,62.26,-0.12,0.31,0.06,0,0,0,0,0
456298961,99814,29.78,-0.5,-31.63,84.69,-43.69,-1007.08,-57.13,60.79,0.31,0.18,0.06,0,0,0,0,0
456308982,99814,29.78,-0.5,-31.7,84.69,-43.76,-1258.3,-105.47,71.04,0.24,0.12,0.06,0,0,0,0,0
456319004,99814,29.78,-0.5,-31.86,84.71,-43.93,-1951.9,-136.23,8.06,-0.79,0.37,0.06,0,0,0,0,0
456329908,99814,29.78,-0.5,-31.9,84.73,-43.99,-2980.22,-110.6,94.48,-2.01,0.43,0.18,0,0,0,0,0
456339947,99814,29.78,-0.5,-31.75,84.76,-43.85,-3306.15,46.88,132.57,-1.83,0.18,0.67,0,0,0,0,0
456349974,99814,29.78,-0.5,-31.68,84.77,-43.8,-3701.66,-93.02,126.71,-1.22,-0.24,0.37,0,0,0,0,0
456360000,99814,29.78,-0.5,-31.71,84.78,-43.83,-3894.29,-109.86,128.17,0.12,-0.37,-0.79,0,0,0,0,0
456370139,99814,29.78,-0.5,-31.79,84.79,-43.88,-4051.03,-86.43,92.29,3.17,-0.31,-1.34,0,0,0,0,0
456381035,99812,29.78,-0.34,-32.28,84.79,-44.37,-4275.15,-407.23,-75.44,-0.24,0.55,-2.01,0,0,0,0,0
456391072,99812,29.78,-0.34,-32.53,84.83,-44.67,-4232.67,-4.39,-185.3,-4.7,1.16,-0.92,0,0,0,0,0
456401095,99812,29.78,-0.34,-32.68,84.85,-44.95,-4356.45,-12.45,8.79,-12.76,0.92,-0.98,0,0,0,0,0
456411232,99812,29.78,-0.34,-32.87,84.85,-45.36,-4461.18,-77.64,141.36,-22.77,0.43,-2.38,0,0,0,0,0
456421263,99812,29.78,-0.34,-33.25,84.84,-45.99,-4509.52,-289.31,52.73,-24.54,0.18,-3.23,0,0,0,0,0
456432167,99811,29.78,-0.25,-33.48,84.84,-46.4,-4587.16,-123.78,138.43,-16.54,0.06,-2.87,0,0,0,0,0
456442218,99811,29.78,-0.25,-33.7,84.85,-46.68,-4625.98,-162.6,-23.44,-6.53,0,-1.77,0,0,0,0,0
456452243,99811,29.78,-0.25,-33.93,84.86,-46.91,-4639.16,-235.11,-112.06,1.1,0,-0.98,0,0,0,0,0
456462272,99811,29.78,-0.25,-34.08,84.88,-47,-4653.08,-191.16,12.45,5.62,0.49,-0.31,0,0,0,0,0
456472416,99811,29.78,-0.25,-34.21,84.9,-47.06,-4617.92,-216.8,98.88,6.77,1.04,0.06,0,0,0,0,0
456483315,99807,29.78,0.08,-34.41,84.91,-47.2,-4645.75,-331.79,154.54,5.49,1.22,-0.06,0,0,0,0,0
456493363,99807,29.78,0.08,-34.52,84.93,-47.27,-4750.49,-243.9,186.04,3.78,0.92,-0.31,0,0,0,0,0
456503391,99807,29.78,0.08,-34.7,84.94,-47.41,-4806.88,-271.73,19.78,3.91,0.24,-0.61,0,0,0,0,0
456513430,99807,29.78,0.08,-34.9,84.95,-47.54,-4864.01,-237.3,-102.54,6.65,-0.37,-0.98,0,0,0,0,0
456523468,99807,29.78,0.08,-35.04,84.96,-47.56,-4862.55,-152.34,-62.99,12.94,-0.24,-0.85,0,0,0,0,0
456534380,99804,29.78,0.34,-35.18,84.98,-47.46,-4902.83,-227.78,32.23,21.3,0.31,-0.24,0,0,0,0,0
456544431,99804,29.78,0.34,-35.32,85.01,-47.29,-4935.06,-239.5,2.2,31.62,0.98,0.55,0,0,0,0,0
456554463,99804,29.78,0.34,-35.48,85.04,-47.02,-4927.73,-213.87,-16.11,42.18,1.46,0.92,0,0,0,0,0
456564488,99804,29.78,0.34,-35.63,85.08,-46.67,-4902.1,-201.42,-44.68,49.8,1.34,0.98,0,0,0,0,0
456574509,99804,29.78,0.34,-35.55,85.09,-46.05,-4872.8,-265.14,352.29,54.2,0.37,0.67,0,0,0,0,0
456585498,99800,29.78,0.67,-35.62,85.12,-45.54,-4779.79,-36.62,-254.15,52.67,-0.85,0.12,0,0,0,0,0
456595536,99800,29.78,0.67,-35.79,85.15,-45.3,-4751.95,-78.37,-258.54,40.04,-0.24,-0.24,0,0,0,0,0
456605562,99800,29.78,0.67,-35.88,85.18,-45.14,-4762.21,-15.38,79.1,25.88,1.1,-0.43,0,0,0,0,0
456615701,99800,29.78,0.67,-36.26,85.2,-45.35,-4812.01,-230.71,-160.4,16.17,1.28,-0.92,0,0,0,0,0
456625732,99800,29.78,0.67,-36.46,85.21,-45.46,-4824.46,-137.7,-52,9.7,-0.12,-1.53,0,0,0,0,0
456636635,99796,29.78,1.01,-36.41,85.19,-45.37,-4968.02,-173.58,115.72,3.72,-2.5,-1.65,0,0,0,0,0
456646677,99796,29.78,1.01,-36.34,85.17,-45.36,-5109.37,-221.19,-189.7,-5.55,-4.7,-1.59,0,0,0,0,0
456656703,99796,29.78,1.01,-36.15,85.15,-45.31,-5227.29,-112.79,-134.77,-14.95,-5.37,-1.65,0,0,0,0,0
456666732,99796,29.78,1.01,-36.08,85.13,-45.43,-5217.77,-156.74,-195.56,-18.86,-4.21,-1.4,0,0,0,0,0
456676752,99796,29.78,1.01,-36.06,85.11,-45.62,-5220.7,-350.1,104.74,-20.63,-2.75,-1.28,0,0,0,0,0
456687775,99789,29.78,1.6,-36.12,85.11,-45.92,-5281.49,-186.04,-238.77,-21.55,-2.81,-1.22,0,0,0,0,0
456697811,99789,29.78,1.6,-36,85.1,-46,-5324.71,-164.79,-32.23,-19.29,-3.36,-0.85,0,0,0,0,0
456707837,99789,29.78,1.6,-35.94,85.09,-46.08,-5351.07,-374.27,-4.39,-14.65,-2.99,-0.31,0,0,0,0,0
456717973,99789,29.78,1.6,-35.78,85.08,-46.03,-5341.55,-178.71,-49.8,-10.19,-3.23,-0.12,0,0,0,0,0
456727999,99789,29.78,1.6,-35.73,85.08,-46.05,-5332.76,-225.59,-243.16,-7.45,-3.91,-0.79,0,0,0,0,0
456738905,99782,29.78,2.19,-35.62,85.06,-45.99,-5344.48,-199.95,36.62,-4.33,-3.11,-1.1,0,0,0,0,0
456748940,99782,29.78,2.19,-35.69,85.05,-46.06,-5363.53,-273.19,-84.96,0.55,-2.32,-1.4,0,0,0,0,0
456758965,99782,29.78,2.19,-35.82,85.05,-46.17,-5384.03,-161.13,-173.58,1.59,-2.44,-2.32,0,0,0,0,0
456768987,99782,29.78,2.19,-35.99,85.02,-46.35,-5408.2,-231.45,-23.44,-1.04,-2.38,-3.3,0,0,0,0,0
456779129,99782,29.78,2.19,-36.28,85,-46.68,-5411.13,-222.66,-83.5,-4.27,-2.08,-4.21,0,0,0,0,0
456790031,99774,29.78,2.86,-36.65,84.96,-47.13,-5458.74,-170.65,-144.29,-6.59,-2.32,-5.31,0,0,0,0,0
456800071,99774,29.78,2.86,-37.06,84.92,-47.62,-5501.95,-236.57,-52,-7.87,-2.26,-6.35,0,0,0,0,0
456810092,99774,29.78,2.86,-37.56,84.87,-48.2,-5528.32,-183.11,-90.09,-8.73,-1.95,-7.39,0,0,0,0,0
456820124,99774,29.78,2.86,-38.16,84.82,-48.89,-5504.88,-213.87,-117.19,-8.91,-1.65,-8.36,0,0,0,0,0
456830146,99774,29.78,2.86,-38.8,84.76,-49.61,-5493.9,-204.35,-62.99,-8.3,-1.22,-9.09,0,0,0,0,0
456841167,99772,29.78,3.03,-39.63,84.69,-50.51,-5453.61,-202.88,-123.78,-6.47,-0.98,-10.38,0,0,0,0,0
456851216,99772,29.78,3.03,-40.42,84.62,-51.35,-5448.49,-186.04,-109.13,-4.82,-0.79,-11.17,0,0,0,0,0
456861251,99772,29.78,3.03,-41.26,84.54,-52.22,-5438.96,-197.02,-55.66,-4.09,-0.37,-12.02,0,0,0,0,0
456871281,99772,29.78,3.03,-42.17,84.46,-53.18,-5479.98,-178.71,-122.31,-4.58,0,-13,0,0,0,0,0
456881316,99772,29.78,3.03,-43.11,84.37,-54.17,-5462.4,-189.7,-80.57,-5.98,0,-14.1,0,0,0,0,0
456892207,99762,29.78,3.88,-44.16,84.25,-55.3,-5446.29,-199.95,-72.51,-7.26,0.06,-15.2,0,0,0,0,0
456902249,99762,29.78,3.88,-45.18,84.15,-56.39,-5430.18,-164.06,-125.24,-8,0.37,-16.17,0,0,0,0,0
456912368,99762,29.78,3.88,-46.22,84.03,-57.51,-5436.77,-186.04,-78.37,-8.79,0.79,-16.85,0,0,0,0,0
456922478,99762,29.78,3.88,-47.31,83.91,-58.69,-5447.75,-206.54,-83.5,-9.28,1.46,-17.64,0,0,0,0,0
456932593,99762,29.78,3.88,-48.44,83.78,-59.9,-5456.54,-198.49,-92.29,-8.91,2.01,-18.62,0,0,0,0,0
